Time (s),Acceleration x (m/s^2),Acceleration y (m/s^2),Acceleration z (m/s^2),Absolute acceleration (m/s^2)
4.301427458,0.2342628479,6.494843903,-2.528392181,6.973567482
4.311403458,0.3427871704,7.35166214,-2.740201721,7.853225117
4.321379458,0.5939648438,8.027506714,-2.61401413,8.463257538
4.331354458,0.7198530579,8.617879028,-2.47824646,8.995984265
4.341330458,0.6343807983,9.101223907,-1.986968079,9.337170758
4.351306458,0.374072113,9.931098175,-1.34091156,10.02819449
4.361282458,0.1134640503,11.10540619,-0.5598358154,11.12008709
4.371258458,-0.1755848694,11.89411606,1.293609924,11.96554443
4.381233458,-0.5189707947,12.20561829,4.015549622,12.85966902
4.391209458,-0.7512876892,11.97120575,4.962480469,12.98077088
4.401185458,-0.769100647,11.36257141,3.596720581,11.94302909
4.411161458,-0.7195536804,10.63538361,1.630858612,10.78373042
4.421137458,-0.7517367554,9.92705658,0.4887336731,9.967468138
4.431112458,-0.7777825928,9.414073334,0.4691244507,9.457790453
4.441088458,-0.6086343384,9.289831696,0.8771759033,9.350981032
4.451064458,-0.2281256104,9.497000885,0.8369096375,9.536534216
4.461040458,0.008083190918,9.675130463,0.3790118408,9.682554662
4.471016458,-0.005538482666,9.81464035,0.1760339355,9.816220445
4.480991458,-0.1450483704,9.970915375,0.2694396973,9.975609765
4.490967458,-0.3962260437,10.08677444,0.324225769,10.09975921
4.500943458,-0.5978567505,9.912087708,0.63887146,9.950631747
4.510919458,-0.596509552,9.655221863,1.083896027,9.734164754
4.520895458,-0.6200106812,9.517807617,1.218765564,9.615532465
4.530870458,-0.6494993591,9.450896759,0.9469308472,9.520397943
4.540846458,-0.7592211914,9.503287811,0.7171586609,9.560502737
4.550822458,-1.028211823,9.478738861,0.4770579529,9.546271222
4.560798458,-1.45213028,9.427545319,0.01811233521,9.538743164
4.570774458,-1.90254364,9.497000885,-0.3132984924,9.690761273
4.580749458,-2.215692444,9.654174042,-0.3662882996,9.911939091
4.590725458,-2.633323975,9.639654236,-0.3239263916,9.998112684
4.600701458,-2.946772156,9.367819519,-0.04251159668,9.820453957
4.610677458,-2.942580872,9.209299164,0.09984237671,9.668502561
4.620653458,-2.672542419,9.104217682,0.4808001709,9.500549005
4.630628458,-2.087708588,9.26243866,1.074615326,9.555422292
4.640604458,-1.210832062,9.578132172,1.274898834,9.738177305
4.650580458,-0.4671784973,9.867480469,1.280137939,9.961133454
4.660556458,-0.1917512512,9.946067047,1.245410156,10.02557054
4.670532458,-0.1716929626,9.801617432,0.8038284302,9.836021701
4.680507458,-0.3405418396,9.599088593,0.1594184875,9.606450167
4.690483458,-0.4712200928,9.376052399,0.06092330933,9.388083862
4.700459458,-0.3159928894,9.191935272,0.1917512512,9.199363788
4.710435458,-0.2444416809,9.10676239,0.2505789185,9.113487958
4.720411458,-0.4314028931,8.870703278,-0.0592767334,8.881384961
4.730386458,-0.63887146,8.684191132,-0.7268884277,8.737945934
4.740362458,-0.7445516968,8.683292999,-1.211131439,8.79890754
4.750338458,-0.758921814,8.748108215,-0.9183403015,8.828856584
4.760314458,-1.293011169,9.005273438,-0.3198847961,9.103249631
4.770290458,-1.690434723,9.403595123,-0.283510437,9.558532783
4.780265458,-1.866169281,9.661059723,0.060025177,9.839830577
4.790241458,-1.924547882,9.809700623,0.5887257385,10.01402561
4.800217458,-1.946252747,9.833650818,0.7390132141,10.05160329
4.810193458,-1.789678345,9.708960114,0.5215155029,9.886295235
4.820169458,-1.652862854,9.425150299,0.113613739,9.569656308
4.830144458,-1.49419281,9.220825195,-0.2493814087,9.344432595
4.840120458,-1.441801758,9.125922546,-0.5477110291,9.255335867
4.850096458,-1.443598022,9.09388916,-0.7451504517,9.237859303
4.860072458,-1.357527008,9.168284454,-0.7707472229,9.300234981
4.870048458,-1.278341675,9.274862823,-0.7056326294,9.38909768
4.880023458,-1.239572296,9.398206329,-0.4555027771,9.490537628
4.889999458,-1.284179535,9.530231781,-0.1901046753,9.618241766
4.899975458,-1.340612183,9.666747894,-0.08981323242,9.759678391
4.909951458,-1.499880981,9.762548676,-0.2046244812,9.879214077
4.919927458,-1.482217712,9.805808716,-0.292641449,9.921516665
4.929902458,-1.349443817,9.847122803,-0.5038522339,9.95191907
4.939878458,-1.175206146,9.811496887,-0.6251000977,9.901380247
4.949854458,-1.312021637,9.624835052,-0.6251000977,9.733940656
4.959830458,-1.263223114,9.53741684,-0.6366261292,9.641750123
4.969806458,-1.216969299,9.472751312,-0.6846762085,9.575114266
4.979781458,-1.303190002,9.426347809,-0.592767334,9.534448611
4.989757458,-1.311273193,9.451495514,-0.5884263611,9.560149079
4.999733458,-1.217568054,9.506730652,-0.4364923096,9.594317338
5.009709458,-1.222956848,9.539213104,-0.2330653381,9.620110683
5.019685458,-1.293160858,9.532327423,-0.2646496582,9.623282732
5.029660458,-1.447489929,9.492210846,-0.4306544495,9.61159493
5.039636458,-1.592089233,9.456135864,-0.6596781921,9.611889977
5.049612458,-1.695823517,9.398805084,-0.7734416199,9.581835229
5.059588458,-1.737736359,9.420809326,-0.9358538818,9.625341474
5.069564458,-1.648821259,9.489067383,-1.138083344,9.698259897
5.079539458,-1.665436707,9.544452209,-1.205293579,9.763348811
5.089514833,-1.640588379,9.531279602,-1.166224823,9.741504064
5.099490833,-1.677112427,9.525890808,-1.214873657,9.748395754
5.109466833,-1.838027802,9.39341629,-1.42518631,9.677074549
5.119442833,-2.099234619,9.210346985,-1.624272308,9.585172826
5.129417833,-2.200723572,9.218130798,-1.774410095,9.641869676
5.139393833,-2.354453888,9.218879242,-1.746717682,9.67378986
5.149369833,-2.612217865,9.322164459,-1.758543091,9.839659861
5.159345833,-2.703827362,9.403146057,-1.918111267,9.970405659
5.169321833,-2.728825378,9.349258118,-2.080822906,9.959163583
5.179296833,-2.715503082,9.275611267,-2.130968628,9.89706768
5.189272833,-2.683469696,9.297166443,-2.267335052,9.938768622
5.199248833,-2.580483856,9.452842712,-2.58242981,10.13331515
5.209224833,-2.364932098,9.846074982,-2.960094452,10.54989363
5.219200833,-2.046394501,10.32941986,-3.073408813,10.96952537
5.229176833,-1.592089233,10.72519684,-2.860401764,11.2136744
5.239151833,-1.116528168,10.77713882,-2.457439728,11.11001199
5.249127833,-0.5860313416,10.60948746,-1.928439789,10.79923779
5.259103833,-0.1236428833,10.48599426,-1.684596863,10.62116895
5.269079833,0.3543132019,10.46982788,-1.532962189,10.58738904
5.279055833,0.6743476868,10.44048889,-1.147364044,10.52497018
5.289030833,0.8304730225,10.43330383,-0.8683442688,10.50226338
5.299006833,0.922381897,10.46384033,-0.6277944946,10.52315869
5.308982833,1.050216064,10.56488022,-0.2665956116,10.6202976
5.318958833,0.9204359436,10.67115921,-0.09909393311,10.71123993
5.328934833,0.4948709106,10.57416092,-0.06990463257,10.58596538
5.338909833,-0.2194436646,10.38091278,-0.03622467041,10.38329514
5.348885833,-0.7276368713,10.18122803,-0.3523672485,10.21327676
5.358861833,-1.090632019,9.8790065,-0.7526348877,9.967482476
5.368837833,-1.230141907,9.659862213,-1.083746338,9.797994346
5.378813833,-1.246008911,9.480984192,-1.084494781,9.623810492
5.388788833,-1.280736694,9.274862823,-1.22041214,9.442074595
5.398764833,-1.210682373,9.222920837,-1.267414398,9.387990192
5.408740833,-1.091979218,9.320667572,-1.052760773,9.443281625
5.418716833,-1.07880661,9.40988205,-0.98989151,9.523108163
5.428692833,-1.087488556,9.475146332,-0.9324110413,9.582818986
5.438668833,-1.066981201,9.617799683,-0.7586224365,9.706494095
5.448643833,-1.010249176,9.886341248,-0.6375242615,9.958252048
5.458619833,-0.959355011,10.23436752,-0.6457571411,10.29949722
5.468595833,-0.8653504944,10.60963715,-0.7214996338,10.66929208
5.478571833,-0.798589325,11.05765549,-0.4953199768,11.09751466
5.488547833,-0.6700067139,11.61958694,-0.01526824951,11.63889784
5.498522833,-0.5442681885,12.18466187,0.5049000549,12.20725754
5.508498833,-0.279768219,12.68806503,1.220262451,12.74967862
5.518474833,0.05358856201,13.13503555,1.634451141,13.23644443
5.528450833,0.2787203979,13.10973816,1.765877838,13.23107117
5.538426833,0.642613678,12.70512955,1.417701874,12.80012296
5.548402833,1.095721436,12.19514008,0.6966513062,12.26406825
5.558377833,1.433419189,11.53591095,0.2230361938,11.62676555
5.568353833,1.409768372,10.82459015,-0.01362167358,10.91601504
5.578329833,1.298250275,10.06012985,0.0845741272,10.14390552
5.588305833,1.363065491,9.53382431,-0.09205856323,9.631211154
5.598281833,1.455423431,9.301507416,-0.5146298218,9.428740182
5.608256833,1.398541718,9.022637329,-0.7092251587,9.157887509
5.618232833,1.188229065,8.721912689,-0.2707868958,8.806643788
5.628208833,0.8309220886,8.573571167,0.4493655396,8.625455551
5.638184833,0.3734733582,8.358169098,1.331181793,8.471748225
5.648160833,-0.0809815979,8.277935944,1.876348114,8.488313363
5.658136833,-0.2152523804,8.332272949,2.103874969,8.596475788
5.668111833,-0.5966592407,8.383915558,2.202669525,8.688946735
5.678087833,-1.053359528,8.503965912,1.540446625,8.706318299
5.688063833,-1.417851562,8.591833191,0.8286767578,8.747377081
5.698039833,-2.088756409,8.563242645,0.145796814,8.815513862
5.708015833,-2.173480225,8.587941284,0.1758842468,8.860456368
5.717990833,-2.172432404,8.576415253,0.4478686523,8.858608664
5.727966833,-1.680704956,8.550818481,0.7092251587,8.743241171
5.737942833,-0.7839198303,8.785680084,1.063388672,8.88445273
5.747918833,-0.3929328918,9.037456512,1.395398254,9.152986002
5.757894833,-0.4513114929,9.109905853,1.522633667,9.247295821
5.767870833,-0.9647438049,9.094787292,1.325044556,9.24130021
5.777845833,-1.374292145,9.033863983,1.218765564,9.218718288
5.787821833,-1.578018494,8.96291153,1.319206696,9.195881239
5.797797833,-1.642234955,8.895252228,1.508862305,9.17055687
5.807773833,-1.749412079,8.680748291,1.609004059,9.000262639
5.817749833,-1.534459076,8.5346521,1.60421402,8.818636728
5.827724833,-1.362616425,8.250842285,1.805994415,8.555392321
5.837700833,-1.184636536,8.104147339,2.05118454,8.443217741
5.847676833,-0.8104147339,8.094417572,2.350412292,8.467632834
5.857652833,-0.4040098572,8.248297577,2.738255768,8.700326519
5.867628833,-0.09984237671,8.535699921,3.253184967,9.135171266
5.877604833,-0.1999841309,8.76741806,3.727398834,9.528961914
5.887579833,-0.3966751099,9.123677216,3.666176147,9.840715656
5.897555833,-0.3849993896,9.488468628,3.143612823,10.00307768
5.907531833,-0.3109034729,9.582024078,2.572400665,9.926182126
5.917507833,-0.193996582,9.497449951,2.073488159,9.723093304
5.927483833,-0.2905458069,9.230704651,1.498683472,9.356087717
5.937459833,-0.28081604,8.948691101,0.997375946,9.00847872
5.947434833,-0.1567240906,8.613687744,0.8394543457,8.655914891
5.957410833,-0.1496887207,8.294551392,0.7909552002,8.333522642
5.967386833,-0.04909790039,8.189020844,0.7006929016,8.219090188
5.977362833,0.0383203125,8.337512054,0.3567082214,8.345227166
5.987338833,0.120050354,8.695417786,0.4649331665,8.708666109
5.997313833,0.3254232788,9.254804535,1.082249451,9.323549279
6.007289833,1.102307739,10.13662079,2.171384583,10.42502155
6.017265833,1.782792664,10.94014984,2.978655853,11.47770094
6.027241833,1.900747375,11.39071289,2.50519043,11.81681682
6.037217833,1.939816132,11.60671371,1.594334564,11.87520916
6.047193833,1.965562592,11.71733368,0.7571255493,11.90514947
6.057168833,1.808239746,11.51914581,0.1472937012,11.66113831
6.067144833,1.401685181,10.89988358,-0.06855743408,10.98985366
6.077120833,0.7782316589,10.05908203,0.1922003174,10.09097204
6.087097583,-0.2345622253,9.300010529,0.2360591125,9.30596256
6.097073583,-1.263821869,9.12667099,-0.4703219604,9.225755894
6.107049583,-1.682650909,9.661508789,-1.772763519,9.965879623
6.117024583,-1.751507721,10.14410522,-3.035537567,10.73243395
6.127000583,-1.976639557,10.34169434,-3.581751709,11.12145184
6.136976583,-2.311792603,10.3819606,-2.754871216,10.98721104
6.146952583,-2.792592773,10.1616188,-1.450334015,10.63769429
6.156928583,-2.726580048,10.28316605,-0.2118095398,10.64061117
6.166904583,-2.705623627,10.42267593,0.1079255676,10.76866848
6.176879583,-2.75786499,10.50111282,0.09789642334,10.85765967
6.186855583,-2.606080627,10.5106929,0.6487509155,10.84837312
6.196831583,-2.618055725,10.10832962,1.790426788,10.59425182
6.206807583,-2.725532227,9.53621933,3.132535858,10.40099928
6.216783583,-2.88539978,8.861572266,3.985162811,10.13580374
6.226758583,-2.86085083,8.390052795,3.225791931,9.433090001
6.236734583,-2.460433502,8.460705872,1.744472351,8.982230271
6.246710583,-2.044298859,8.666228485,0.0470022583,8.904205927
6.256686583,-1.832489319,8.756790161,-2.115401001,9.193166616
6.266662583,-1.975891113,8.847950592,-3.984863434,9.903005198
6.276638583,-2.184856567,9.105714569,-4.505780182,10.39180885
6.286613583,-2.183209991,9.454788666,-3.641776886,10.36445722
6.296589583,-1.636097717,10.04082001,-2.007475433,10.36941849
6.306565583,-1.233584747,10.54437286,-1.052311707,10.66831244
6.316541583,-1.434916077,10.7004982,-0.9123527527,10.83476042
6.326517583,-1.959724731,10.5292543,-0.9315129089,10.75050852
6.336493583,-2.317630463,10.24080414,-0.5412744141,10.51372714
6.346468583,-2.428250427,9.84278183,0.0462538147,10.13799259
6.356444583,-2.375859375,9.58651474,0.392334137,9.88432591
6.366420583,-2.324366455,9.454489288,0.3734733582,9.743178612
6.376396583,-2.173031158,9.486522675,-0.2535726929,9.735526487
6.386372583,-1.971849518,9.43907135,-0.7424560547,9.671375262
6.396348583,-1.624571686,9.455237732,-0.6680607605,9.617019232
6.406323583,-1.217268677,9.339827728,-0.4225712585,9.428292077
6.416299583,-0.9075627136,9.218879242,-0.5303471375,9.278613724
6.426275583,-0.5917195129,9.184899902,-0.7441026306,9.233970269
6.436251583,0.02230361938,9.299411774,-0.6623725891,9.322998136
6.446227583,0.5786965942,9.424701233,-0.6881190491,9.467491268
6.456203583,0.9147477722,9.385782166,-0.6586303711,9.453225075
6.466178583,1.086740112,9.232351227,-0.540226593,9.311775235
6.476154583,1.306034088,9.086105347,-0.5158273315,9.193971571
6.486130583,1.548529816,8.877588959,-0.9666897583,9.063333791
6.496106583,1.787283325,8.647966461,-1.370400238,8.936425595
6.506082583,1.976639557,8.63988327,-1.531764679,8.994497757
6.516058583,2.067650299,8.774303741,-1.442550201,9.129322811
6.526033583,1.432820435,8.978928223,-1.040486298,9.151870747
6.536009583,-0.02005828857,9.170679474,-0.6384223938,9.192896578
6.545985583,-0.7828720093,9.483379211,-0.610430603,9.53519771
6.555961583,-1.20514389,9.914333038,-0.3282673645,9.992703881
6.565937583,-1.668879547,10.20428009,0.07394622803,10.34011408
6.575913583,-2.111060028,10.3143013,0.3436853027,10.53373179
6.585888583,-2.486179962,10.34364029,0.2276765442,10.6406683
6.595864583,-2.81055542,10.31145721,0.01571731567,10.68763859
6.605840583,-3.018922119,10.16595978,0.1097218323,10.60531319
6.615816583,-3.068469086,9.915829926,0.2098635864,10.38187018
6.625792583,-3.004252625,9.601932678,0.3385958862,10.06664255
6.635768583,-2.665057983,9.590556335,0.4378395081,9.96358411
6.645743583,-2.449805603,9.63097229,0.4869374084,9.949587066
6.655719583,-2.463277588,9.547595673,0.6574328613,9.882132238
6.665695583,-2.374811554,9.68710556,0.9979747009,10.02375666
6.675671583,-2.217189331,10.15997223,0.9451345825,10.44194635
6.685647583,-2.168989563,10.90287735,0.7235952759,11.14005567
6.695623583,-2.484533386,11.80415314,0.7191046143,12.08420659
6.705598583,-2.951861572,12.45978973,0.8469387817,12.83265959
6.715574583,-3.308569794,12.74524612,1.55616394,13.25932046
6.725550583,-3.282673645,12.93789551,2.322869568,13.54846152
6.735526583,-3.093467102,12.88715103,1.728455658,13.36546892
6.745502583,-2.574645996,12.699142,0.1567240906,12.95845562
6.755478583,-1.946252747,12.49990631,-1.265767822,12.71368262
6.765453583,-1.458716583,12.30456253,-1.782343597,12.51826113
6.775429583,-1.214274902,11.91282715,-1.307830353,12.04576002
6.785405583,-0.8625064087,11.19072876,-0.1950444031,11.22561222
6.795381583,-0.3523672485,10.91290649,1.588197327,11.03349725
6.805357583,0.1678010559,11.23877884,3.050805817,11.64670439
6.815333583,0.5075944519,11.54923325,3.130589905,11.97677059
6.825309583,0.703686676,11.4423555,1.64986908,11.58208713
6.835284583,0.9113049316,11.20015915,-0.03412902832,11.23722414
6.845260583,1.202599182,11.22216339,-1.34914444,11.36676676
6.855236583,1.622476044,11.52887558,-2.11195816,11.83248782
6.865212583,1.957629089,11.84861069,-1.980531464,12.17145808
6.875188583,2.093097382,11.89187073,-0.8930429077,12.1076493
6.885164583,1.688339081,11.48995651,0.5786965942,11.6277461
6.895139583,0.7258406067,10.49497559,1.735041962,10.66216337
6.905115583,0.08786727905,9.618997192,2.315385132,9.89413139
6.915091583,-0.4923262024,8.87743927,2.217937775,9.163545223
6.925067583,-0.8828640747,8.412206726,1.759441223,8.639462043
6.935043583,-1.04258194,8.04786438,1.161584473,8.197827558
6.945019583,-1.084943848,7.79039978,0.4703219604,7.879634169
6.954995583,-0.9648934937,7.932604065,0.2439926147,7.994795751
6.964970583,-0.9163943481,7.914192352,0.496816864,7.982546347
6.974946583,-0.9578581238,7.932604065,0.7720944214,8.02744226
6.984922583,-0.8903485107,7.897726593,0.8916957092,7.997620086
6.994898583,-0.7746391296,7.885302429,1.076710968,7.99608446
7.004874583,-0.7665559387,7.829318848,1.003513184,7.930503158
7.014850583,-0.7771838379,7.631729736,0.9803114319,7.733584162
7.024825583,-0.7580236816,7.571405182,0.9267228699,7.66548052
7.034801583,-0.7066804504,7.586673431,0.9461824036,7.678038301
7.044777583,-0.7334747314,7.47096405,1.015787659,7.575296271
7.054753583,-0.7310797119,7.402256927,1.224304047,7.538355627
7.064729583,-0.7113208008,7.407945099,1.442250824,7.580482525
7.074705583,-0.576151886,7.423363037,1.639540558,7.624064731
7.084680583,-0.1817221069,7.440876617,1.691482544,7.632875013
7.094659083,0.1669029236,7.473508759,1.658251648,7.657087454
7.104635083,0.3975732422,7.430248718,1.916165314,7.683641715
7.114611083,0.5249583435,7.366481323,2.212399292,7.709431819
7.124587083,0.5590873718,7.357200623,2.482587433,7.784871229
7.134563083,0.5601351929,7.385940857,2.628234558,7.859611356
7.144539083,0.5023553467,7.483986969,2.618953857,7.94489403
7.154514083,0.2884501648,7.581584015,2.742297363,8.067454028
7.164490083,-0.1541793823,7.692503357,2.989433441,8.254398311
7.174466083,-0.8716374207,7.992329865,3.328478394,8.7014859
7.184442083,-1.541793823,8.437953186,3.698808289,9.341165073
7.194418083,-2.175725555,8.981173553,4.019142151,10.07714065
7.204394083,-2.763403473,9.518106995,4.239633636,10.77985403
7.214369083,-3.144960022,10.05533981,4.611610107,11.50076433
7.224345083,-3.364553375,10.42372375,5.335055695,12.18347469
7.234321083,-3.516637115,10.75124268,5.697601776,12.66564731
7.244297083,-3.686384125,10.7588768,5.583988037,12.66979796
7.254273083,-3.568579102,10.51892578,5.279072113,12.29842099
7.264249083,-3.138373718,10.38974442,5.227130127,12.04653759
7.274225083,-2.642155609,10.60784088,5.563330994,12.26612923
7.284200083,-2.079775085,11.06334366,5.711822205,12.6233098
7.294176083,-1.414857788,11.69742508,4.960833893,12.78442212
7.304152083,-1.050365753,12.14364716,2.81175293,12.50909225
7.314128083,-1.199904785,11.90534271,-0.09056167603,11.96600008
7.324104083,-1.128054199,11.34131561,-1.235979767,11.46410014
7.334080083,-0.9177415466,10.95646591,-1.761387177,11.13502939
7.344056083,-0.819994812,10.79510147,-2.352358246,11.07881747
7.354031083,-0.6024971008,10.74914703,-1.682351532,10.89667249
7.364007083,-0.3453318787,10.50620224,-0.7509883118,10.53866799
7.373983083,0.2591111755,10.42746597,-0.1407073975,10.4316338
7.383959083,0.9747729492,10.5597908,0.1387614441,10.60559375
7.393935083,1.473685455,10.6287973,0.03143463135,10.73052045
7.403911083,1.419947205,10.28990204,-0.1595681763,10.38863783
7.413887083,0.6724017334,9.608069916,-0.6132746887,9.651074419
7.423862083,0.0722996521,9.144483948,-0.7505392456,9.175517591
7.433838083,-0.08053253174,8.979976044,-0.845741272,9.020073921
7.443814083,0.1245410156,8.986412659,-1.129251709,9.057943053
7.453790083,0.5511538696,8.910819855,-0.8015830994,8.963761294
7.463766083,0.7360194397,8.529862061,-0.001796264648,8.561557955
7.473742083,0.6328839111,8.057444458,0.8307723999,8.124846831
7.483718083,0.08367599487,7.75178009,1.226100311,7.848593391
7.493693083,-0.6089337158,8.161178741,1.175804901,8.267899122
7.503669083,-0.7476951599,8.934620361,0.8267308044,9.003886543
7.513645083,-0.8566685486,9.615105286,0.2490820312,9.656405776
7.523621083,-1.22864502,10.00025436,-0.168848877,10.0768629
7.533597083,-1.5819104,10.40381516,-0.3918850708,10.53068774
7.543573083,-1.85344574,10.74226135,-0.4872367859,10.91186692
7.553549083,-2.175126801,10.83431992,-0.5463638306,11.06400371
7.563524083,-2.665656738,10.54542068,-0.3725752258,10.88349372
7.573500083,-3.133134613,10.09785141,0.565973053,10.58789219
7.583476083,-3.430117035,9.610015869,1.501826935,10.31375742
7.593452083,-3.344345398,9.200168152,1.662442932,9.929323072
7.603428083,-2.762804718,9.193881226,1.402733002,9.701968964
7.613404083,-2.279160461,9.352700958,0.9205856323,9.670318792
7.623380083,-2.132016449,9.254056091,0.5514532471,9.512473336
7.633355083,-2.110461273,9.024134216,0.26210495,9.271339933
7.643331083,-1.995200958,8.810229034,0.2243833923,9.036111465
7.653307083,-1.70719986,8.784033508,0.5442681885,8.964931896
7.663283083,-1.416055298,8.724307709,0.8110134888,8.875612682
7.673259083,-1.261576538,8.751251678,0.827479248,8.880354903
7.683235083,-1.438658295,8.664581909,0.4947212219,8.797128306
7.693211083,-1.563348999,8.639134827,0.1986369324,8.781695012
7.703186083,-1.644180908,8.590485992,0.01422042847,8.746426851
7.713162083,-1.940863953,8.681945801,-0.2127076721,8.898785329
7.723138083,-2.208058319,8.976233826,-0.2721340942,9.247829594
7.733114083,-2.273921356,9.175469513,-0.09280700684,9.45349524
7.743090083,-2.34487381,9.251062317,0.1944456482,9.545595649
7.753066083,-2.369123383,9.343420258,0.4692741394,9.650516356
7.763042083,-2.430645447,9.410331116,0.6692582703,9.742190494
7.773018083,-2.550546112,9.466464386,0.6762936401,9.827339748
7.782993083,-2.500849457,9.623637543,0.5146298218,9.956580307
7.792969083,-2.314786377,9.688452759,0.3496728516,9.967277659
7.802945083,-2.185904388,9.532776489,0.172591095,9.781707074
7.812921083,-2.126328278,9.384285278,0.008382568359,9.622169838
7.822897083,-2.09100174,9.314680023,-0.1357676697,9.547459613
7.832873083,-2.019450531,9.370214539,-0.228874054,9.588090753
7.842849083,-1.995500336,9.427545319,-0.2586621094,9.639893071
7.852824083,-2.128274231,9.475745087,-0.2945874023,9.716279014
7.862800083,-2.297123108,9.505982208,-0.2981799316,9.784139389
7.872776083,-2.37990097,9.573192444,-0.2728825378,9.868353818
7.882752083,-2.329306183,9.626182251,-0.269589386,9.907660191
7.892728083,-2.155966644,9.652228088,-0.1907034302,9.89191928
7.902704083,-1.935774536,9.680818634,0.02619552612,9.872495059
7.912680083,-1.7995578,9.668843536,0.2203417969,9.837351987
7.922656083,-1.77156601,9.766889648,0.4318519592,9.935646715
7.932631083,-1.704505463,10.13826736,0.4546046448,10.29060102
7.942607083,-1.633253632,10.90123077,0.3240760803,11.02766408
7.952583083,-1.818717957,11.96866104,0.1893562317,12.10753641
7.962559083,-2.273921356,12.92696823,0.185464325,13.12675219
7.972535083,-2.865042114,13.65206039,0.1395098877,13.9501499
7.982511083,-3.461551666,14.00337982,-0.1110690308,14.42530148
7.992487083,-3.838467865,13.9532341,-0.4481680298,14.47851622
8.002462083,-3.902384949,13.72061783,-0.5655239868,14.2759861
8.012438083,-3.917054443,13.08967987,-0.04730163574,13.66328189
8.022414083,-4.031865692,11.96701447,1.386267242,12.70382277
8.032390083,-4.142335968,10.95706467,3.276985474,12.16366915
8.042366083,-4.203708344,10.12105316,4.047133942,11.68272974
8.052342083,-3.643722839,9.569150848,2.865042114,10.63267748
8.062318083,-2.176473999,9.500294037,0.6532415771,9.768282879
8.072294083,-0.6069877625,9.544003143,-1.395697632,9.664595285
8.082269083,0.2119592285,9.690249023,-2.192640381,9.937480802
8.092242583,0.1743873596,9.638606415,-1.752106476,9.798113169
8.102218583,-0.0,9.689949646,-0.6063890076,9.708904767
8.112194583,-0.05403762817,10.04575974,-0.2712359619,10.04956604
8.122170583,0.2591111755,10.81515976,-0.1058299255,10.81878086
8.132146583,0.6408174133,11.72586594,0.2493814087,11.74601081
8.142122583,1.097368011,12.14394653,0.7306306458,12.21529677
8.152098583,1.909728699,12.41173965,1.335373077,12.62860112
8.162073583,2.99542099,12.62100449,1.676663361,13.07950692
8.172049583,4.063300323,12.42161911,2.111509094,13.23878777
8.182025583,4.463567963,11.52842651,2.233206024,12.56245462
8.192001583,3.554807739,10.15383499,1.676513672,10.88796221
8.201977583,1.337019653,8.943451996,0.896635437,9.087183847
8.211953583,-0.06586303711,8.503965912,0.01856140137,8.504241218
8.221929583,-0.6143225098,8.219557343,-1.084794159,8.313560815
8.231904583,-0.9785151672,7.72139328,-1.544937286,7.935000777
8.241880583,-1.180744629,7.248975677,-1.443148956,7.484950578
8.251856583,-1.280736694,6.861880646,-1.212778015,7.084950458
8.261832583,-1.276695099,6.672674103,-0.6965016174,6.829322409
8.271808583,-1.171613617,6.545887756,0.04296066284,6.650050421
8.281784583,-0.9225315857,6.570436707,0.9024732971,6.695980966
8.291760583,-0.7445516968,6.53615799,1.182540894,6.683870245
8.301736583,-0.6454577637,6.513405304,1.276844788,6.668687801
8.311712583,-0.6170169067,6.550079041,1.174457703,6.683082836
8.321687583,-0.4953199768,6.599476318,1.124910736,6.712961621
8.331663583,-0.3586541748,6.762637024,1.230291595,6.882986978
8.341639583,-0.173638916,6.900650024,1.274000702,7.01941586
8.351615583,0.4709207153,7.116950226,1.172661438,7.228269619
8.361591583,1.045276337,7.29313385,1.242566071,7.47170492
8.371567583,1.25903183,7.332352295,1.554517365,7.600333911
8.381543583,1.334924011,7.517966309,1.774410095,7.839028685
8.391519583,1.410516815,7.921976166,1.95987442,8.281809694
8.401494583,1.458566895,8.273594971,2.37765564,8.731153272
8.411470583,1.456022186,8.67386261,2.963237915,9.280984437
8.421446583,1.098864899,9.020391998,3.720812531,9.819339171
8.431422583,0.4117936707,9.443562012,4.500840454,10.46938405
8.441398583,-0.2656974792,9.958341522,5.166356506,11.22187153
8.451374583,-0.7502398682,10.52880524,5.731880493,12.01137184
8.461350583,-1.187330933,11.06768463,6.239025879,12.7604405
8.471326583,-1.623972931,11.67033142,6.672674103,13.54099344
8.481301583,-2.037712555,12.08571762,6.744075623,13.98926013
8.491277583,-2.455942841,11.99515594,6.584806824,13.90234161
8.501253583,-2.86668869,11.52034332,6.171216888,13.37984051
8.511229583,-3.203188934,10.62774948,5.322930908,12.31028317
8.521205583,-3.375181274,9.610315247,4.309089203,11.05975848
8.531181583,-3.098257141,8.893006897,3.404370575,10.01371599
8.541157583,-2.353555756,8.509055328,2.845133514,9.275668816
8.551132583,-1.4837146,8.695717163,2.280357971,9.111363151
8.561108583,-0.6355783081,9.634115753,1.155746613,9.723985621
8.571084583,-0.033230896,10.60080551,0.03607498169,10.60091898
8.581060583,0.07753875732,11.33532806,-0.3173400879,11.34003436
8.591036583,0.03966751099,12.07419159,0.1116677856,12.07477311
8.601012583,0.580941925,12.89328827,1.728904724,13.02165456
8.610988583,1.213676147,13.43366455,3.070115662,13.83336413
8.620964583,1.015188904,13.37289093,2.45953537,13.63503335
8.630940583,-0.0288899231,12.37940689,0.4131408691,12.38633259
8.640915583,-0.1842668152,11.63111298,-1.578317871,11.739158
8.650891583,0.06406677246,11.0774144,-2.63272522,11.38615196
8.660867583,0.1917512512,10.24993515,-2.961890717,10.67102318
8.670843583,0.2710862732,9.405840454,-2.483036499,9.731844258
8.680819583,0.1206491089,8.529712372,-1.683249664,8.695049096
8.690795583,0.1633103943,7.894882507,-0.7812254333,7.935121503
8.700771583,0.4373904419,7.54116806,0.2146536255,7.556891047
8.710747583,0.9328601074,7.48503479,0.9565109253,7.603347088
8.720722583,1.294807434,7.727530518,0.5602848816,7.855264053
8.730698583,1.041683807,7.926915894,-0.975970459,8.054416123
8.740674583,0.4517605591,7.958799591,-2.470612335,8.345687739
8.750650583,-0.1296304321,8.111931152,-3.130739594,8.696077361
8.760626583,-0.4107458496,8.486302643,-2.912792816,8.981670596
8.770602583,-0.556842041,9.171876984,-2.327809296,9.479034581
8.780578583,-0.8089178467,9.962682495,-1.56439682,10.11715019
8.790554583,-1.010099487,10.73941727,-0.4406835938,10.79581337
8.800529583,-1.309776306,11.35838013,0.6408174133,11.45159203
8.810505583,-1.685045929,11.57093811,0.8851094055,11.72644052
8.820481583,-2.130070496,11.37768997,0.5195695496,11.58701782
8.830457583,-2.58707016,10.89928482,0.6969506836,11.22377307
8.840433583,-3.023263092,10.30487091,1.181942139,10.80404884
8.850409583,-3.304228821,9.69997879,1.464554443,10.3514461
8.860385583,-3.238365784,9.20271286,1.363963623,9.850752951
8.870361583,-2.705473938,9.034762115,1.099164276,9.494981718
8.880336583,-2.207758942,9.027726746,0.6017486572,9.313224532
8.890312583,-1.935175781,8.864416351,0.1324745178,9.074157374
8.900288583,-1.734293518,8.721164246,-0.08292755127,8.892320101
8.910264583,-1.479074249,8.82250351,-0.06631210327,8.945872015
8.920240583,-1.310225372,8.957373047,-0.08382568359,9.053079541
8.930216583,-1.207688599,8.924441528,-0.3736230469,9.013532189
8.940192583,-1.176553345,8.882828064,-0.5481600952,8.977159444
8.950168583,-1.225651245,8.896599426,-0.6083349609,9.001209572
8.960144583,-1.305135956,8.85169281,-0.6532415771,8.971207835
8.970119583,-1.663939819,8.888366547,-0.6942562866,9.069385171
8.980095583,-2.020049286,9.101074219,-0.6596781921,9.345872157
8.990071583,-2.189945984,9.332193604,-0.7479945374,9.61484252
9.000047583,-2.331252136,9.472152557,-0.7494914246,9.783565198
9.010023583,-2.503843231,9.532776489,-0.6369255066,9.876676193
9.019999583,-2.644251251,9.512418823,-0.3781137085,9.880341417
9.029975583,-2.698139191,9.516610107,0.01841171265,9.891721894
9.039951583,-2.697241058,9.512867889,0.2032772827,9.889948759
9.049926583,-2.447260895,9.555678864,0.1890568542,9.8658921
9.059902583,-2.014959869,9.622889099,0.1540296936,9.832791213
9.069878583,-1.774110718,9.570498047,0.1951940918,9.735502167
9.079854583,-1.70016449,9.52454361,0.2070195007,9.677310956
9.0898305,-1.601819,9.549691315,0.2616558838,9.686634716
9.0998065,-1.536854095,9.576335907,0.05343887329,9.699019828
9.1097825,-1.575773163,9.562564545,-0.3186872864,9.696765611
9.1197585,-1.657503204,9.536069641,-0.5894741821,9.696979988
9.1297345,-1.74222702,9.416767731,-0.6578819275,9.599149864
9.1397095,-1.784139862,9.269773407,-0.6041436768,9.459220034
9.1496855,-1.834884338,9.145831146,-0.6239025879,9.348918779
9.1596615,-1.905088348,9.134155426,-0.5068460083,9.344466268
9.1696375,-1.985171814,9.140592041,-0.2779719543,9.357809487
9.1796135,-1.966011658,9.131910095,-0.08652008057,9.341545351
9.1895895,-1.858235779,9.174122314,-0.01586700439,9.360438676
9.1995655,-1.755549316,9.247769165,-0.04715194702,9.413044738
9.2095415,-1.694476318,9.299711151,-0.02634521484,9.452860496
9.2195165,-1.618584137,9.346863098,0.1531315613,9.487207896
9.2294925,-1.642085266,9.488618317,0.2035766602,9.63181006
9.2394685,-1.680405579,9.797426147,0.1920506287,9.942344063
9.2494445,-1.806742859,10.26909531,0.07649093628,10.42710358
9.2594205,-2.188598785,10.9778714,-0.1835183716,11.19541442
9.2693965,-2.745740204,11.76987442,-0.4194277954,12.09317794
9.2793725,-3.138972473,12.44497055,-0.7807763672,12.85846227
9.2893485,-3.418890381,12.87487656,-1.322350159,13.38655548
9.2993245,-3.562292175,13.16691925,-1.575174408,13.73094543
9.3093005,-3.706442413,13.29580124,-1.11039093,13.84734682
9.3192755,-3.947141876,13.19925201,-0.0556842041,13.77691125
9.3292515,-4.295168152,12.76874725,1.267863464,13.5313286
9.3392275,-4.686604156,11.97105606,2.523602142,13.10110719
9.3492035,-4.678520966,11.33068771,2.512525177,12.5134258
9.3591795,-3.674558716,10.99583405,1.199605408,11.65546229
9.3691555,-2.107617188,10.71322174,-0.01631607056,10.91858216
9.3791315,-0.8882528687,10.33091675,-0.4671784973,10.37955152
9.3891075,-0.1691482544,9.84278183,-1.095422058,9.904994435
9.3990825,0.05164260864,9.097182312,-1.949845276,9.303939465
9.4090585,0.2112107849,8.454119568,-1.982028351,8.685918722
9.4190345,0.4653822327,8.325387268,-1.707349548,8.511386272
9.4290105,0.8382568359,8.857680359,-1.491498413,9.021404734
9.4389865,1.302591248,9.706864471,-1.046623535,9.849638707
9.4489625,1.739981689,10.37297928,-0.5827381897,10.53403148
9.4589385,2.095791779,10.98191299,-0.09804611206,11.18053528
9.4689145,2.640658722,11.79547119,1.38536911,12.16657169
9.4788905,3.461701355,12.76710068,2.772235107,13.51545499
9.4888655,4.334536285,13.54608078,3.529959412,14.65418448
9.4988415,4.859494629,13.70070923,3.383114777,14.92546773
9.5088175,3.542383575,12.51652176,2.747686157,13.29517121
9.5187935,1.811233521,11.12830856,1.653012543,11.39527397
9.5287695,0.593815155,10.11207184,0.4906796265,10.14136972
9.5387455,-0.2439926147,9.370962982,-0.09415420532,9.374611705
9.5487215,-0.6411167908,8.87743927,-0.6300398254,8.922830768
9.5586975,-0.8394543457,8.484207001,-1.101559296,8.596504226
9.5686735,-0.9707313538,8.167315979,-1.277293854,8.323391692
9.5786485,-1.025218048,7.775430908,-1.159488831,7.927976552
9.5886245,-0.9310638428,7.531288605,-0.7725434875,7.627844477
9.5986005,-0.8238867188,7.560777283,0.1094224548,7.606320774
9.6085765,-0.992585907,7.352260895,0.9343569946,7.477565783
9.6185525,-1.209185486,6.994355164,1.717229004,7.302876772
9.6285285,-1.428479462,6.692433014,2.068997498,7.149123293
9.6385045,-1.657353516,6.488556976,1.921404419,6.967064464
9.6484805,-1.730700989,6.351591797,1.68025589,6.794211074
9.6584565,-1.448986816,6.512956238,1.567091217,6.85375347
9.6684315,-0.4111949158,6.744375,1.217568054,6.86572264
9.6784075,0.5131329346,6.758595428,1.110690308,6.868446006
9.6883835,0.8882528687,6.700067139,1.440604248,6.910516147
9.6983595,0.8922944641,6.618337097,1.800455933,6.916662266
9.7083355,0.775537262,6.666985931,1.830393677,6.957046821
9.7183115,0.7390132141,6.943161621,1.728755035,7.193207059
9.7282875,0.6797364807,7.353009338,1.75749527,7.590624325
9.7382635,0.5971083069,7.841443634,2.078876953,8.134279684
9.7482395,0.1137634277,8.234825592,2.798730011,8.698171321
9.7582155,-0.6791377258,8.631201324,3.524570618,9.347805218
9.7681905,-1.155147858,9.213789825,4.140240326,10.16709789
9.7781665,-1.487756195,9.916877747,4.671335907,11.06251607
9.7881425,-1.774260406,10.75258987,5.125641174,12.04318838
9.7981185,-2.117496643,11.34460876,5.749992828,12.89365571
9.8080945,-2.521057434,11.7011673,6.650520172,13.69315396
9.8180705,-2.99302597,11.92719727,6.959328003,14.12970224
9.8280465,-3.440146179,11.86313049,6.642736359,14.02477868
9.8380225,-3.776796112,11.42274628,5.902226257,13.40073118
9.8479985,-3.622916107,10.54542068,5.202281799,12.30427383
9.8579735,-2.527643738,9.789941711,4.630470886,11.12084539
9.8679495,-1.551673279,9.179660797,4.154311066,10.19471249
9.8779255,-1.343905334,8.442443848,3.779490509,9.346950742
9.8879015,-1.257984009,7.738008728,3.324885864,8.515525166
9.8978775,-1.043180695,7.407945099,2.679577789,7.946446607
9.9078535,-0.7289840698,8.199499054,1.603465576,8.386554976
9.9178295,-0.3867956543,9.513017578,0.5920188904,9.539266255
9.9278055,0.02948867798,10.78417419,0.4445755005,10.79337436
9.9377815,0.349972229,12.00144287,0.9991722107,12.04804784
9.9477565,0.4221221924,12.96783325,1.291364594,13.0388078
9.9577325,0.2935395813,13.82300491,0.8445437622,13.85189101
9.9677085,-0.09116043091,14.64629288,1.135838013,14.69055252
9.9776845,-0.8409512329,14.88818985,1.41815094,14.97920385
9.9876605,-1.198108521,14.1921373,-0.3854484558,14.24783477
9.9976365,-0.565973053,13.16392548,-2.875670013,13.48624253
10.0076125,-0.1011895752,11.72990753,-4.10581192,12.42813991
10.0175885,-0.06960525513,10.20487885,-3.678001556,10.84767683
10.0275645,-0.1582209778,8.926686859,-2.397713928,9.244447211
10.0375395,-0.01137634277,8.038733368,-0.7252418518,8.071390173
10.0475155,0.5051994324,7.323221283,1.368005219,7.467009756
10.0574915,0.8674461365,6.900799713,2.07812851,7.258933639
10.0674675,0.7963439941,6.907236328,0.946481781,7.017115163
10.0774435,0.4254153442,7.161707153,-0.9071136475,7.231450943
10.0874195,-0.01197509766,7.185807037,-2.26643692,7.534766253
10.09739483,-0.3603007507,7.093149719,-2.587519226,7.558957952
10.10737083,-0.5165757751,7.148983612,-2.371518402,7.549762695
10.11734683,-0.3577560425,7.653434601,-1.961371307,7.908857565
10.12732283,0.04715194702,8.430618439,-1.180145874,8.512948658
10.13729783,0.2161505127,9.207203522,-0.5436694336,9.225773365
10.14727383,-0.1312770081,9.996811523,-0.1251397705,9.998456593
10.15724983,-0.563278656,10.53134995,0.3926335144,10.55370909
10.16722583,-0.9071136475,10.94883179,0.719254303,11.00986373
10.17720183,-1.285227356,11.21123611,0.750838623,11.30961464
10.18717783,-1.742676086,11.07666595,0.5475613403,11.22627596
10.19715383,-2.248773651,10.55036041,0.6012995911,10.80410334
10.20712983,-2.640958099,10.1762883,0.93256073,10.5546754
10.21710583,-2.874322815,9.862241364,1.288819885,10.35309582
10.22708183,-2.684367828,9.565258942,1.29645401,10.01902202
10.23705683,-1.942061462,9.659413147,0.6902146912,9.876854833
10.24703283,-1.385967865,9.667346649,0.1604663086,9.767509795
10.25700883,-1.153201904,9.404044189,0.1633103943,9.475895316
10.26698483,-1.10694809,9.163494415,0.4326004028,9.240243886
10.27696083,-1.167422333,8.891060944,0.4156855774,8.977005854
10.28693683,-1.151555328,8.846753082,-0.02903961182,8.921432793
10.29691283,-1.083147583,8.778345337,-0.06316864014,8.845142498
10.30688883,-1.028062134,8.764723663,0.2609074402,8.828667246
10.31686483,-1.102607117,8.725954285,0.296383667,8.80033317
10.32683983,-1.01099762,8.718020782,0.0505947876,8.776591729
10.33681583,-0.9383985901,8.780590668,-0.1573228455,8.831993822
10.34679183,-0.9883946228,8.945996704,-0.1986369324,9.002623928
10.35676783,-1.128203888,9.117539978,-0.1068777466,9.187698412
10.36674383,-1.624272308,9.217082977,0.06631210327,9.359341667
10.37671983,-1.946701813,9.297765198,0.169896698,9.50089209
10.38669583,-2.069296875,9.502389679,0.1585203552,9.726383083
10.39667183,-2.232756958,9.573491821,0.09056167603,9.830826552
10.40664783,-2.359094238,9.584269409,0.01676513672,9.870350896
10.41662383,-2.395618286,9.616751862,0.1857637024,9.912386771
10.42659883,-2.408641205,9.661658478,0.4016148376,9.96546494
10.43657483,-2.427052917,9.687255249,0.3222798157,9.991864911
10.44655083,-2.38813385,9.778565369,0.1465452576,10.06702535
10.45652683,-2.365979919,9.810898132,0.02020797729,10.09217477
10.46650283,-2.23605011,9.749974823,-0.0419128418,10.00318378
10.47647883,-2.153272247,9.550140381,-0.06616241455,9.790104194
10.48645483,-2.15057785,9.337133331,-0.1785786438,9.583263237
10.49643083,-2.169887695,9.212742004,-0.4653822327,9.476265534
10.50640683,-2.164498901,9.150321808,-0.7911048889,9.436063354
10.51638283,-2.181114349,9.175170135,-0.9415420532,9.477737507
10.52635783,-2.232756958,9.358838196,-1.059496765,9.679648207
10.53633383,-2.280807037,9.653575287,-1.133442993,9.983901521
10.54630983,-2.309397583,9.986033936,-0.9933343506,10.29761643
10.55628583,-2.311044159,10.25517426,-0.6840774536,10.53458524
10.56626183,-2.232607269,10.46922913,-0.255668335,10.70769163
10.57623783,-2.093696136,10.65110092,0.1917512512,10.85662392
10.58621383,-2.015558624,10.94014984,0.5218148804,11.13650061
10.59618983,-2.117197266,11.41810593,0.5276527405,11.62471869
10.60616583,-2.107168121,12.11161377,0.4990621948,12.3036746
10.61614183,-2.070344696,12.85646484,0.5839356995,13.03518302
10.62611683,-2.160756683,13.45941101,0.6081852722,13.64531068
10.63609283,-2.390229492,13.71867188,0.2851570129,13.92826154
10.64606883,-2.705324249,13.55745712,-0.1555265808,13.82561432
10.65604483,-3.034190369,12.79314651,-0.4450245667,13.15556748
10.66602083,-3.167712708,11.77900543,-0.3490740967,12.20250898
10.67599683,-2.96967453,11.13055389,0.5412744141,11.53261353
10.68597283,-2.361339569,10.70603668,1.450334015,11.05887041
10.69594883,-1.445693665,10.48315018,1.496737518,10.68768876
10.70592483,-0.4766088867,10.21146515,1.057251434,10.2771084
10.71590083,0.3894900513,10.0887204,0.3555107117,10.10249324
10.72587583,0.5972579956,9.785900116,-0.2264790344,9.806724782
10.73585183,0.3011737061,9.176068268,-0.8801696777,9.223103226
10.74582783,-0.07334747314,8.607999573,-1.323098602,8.70939874
10.75580383,-0.1636097717,8.846902771,-1.370699615,8.953952995
10.76577983,0.1942959595,9.711804199,-1.18298996,9.785517716
10.77575583,0.5960604858,10.65589096,-0.6262976074,10.69090964
10.78573183,1.027613068,11.34580627,0.4296066284,11.40034519
10.79570783,1.783391418,11.90728867,1.451681213,12.12729923
10.80568383,2.821782074,12.37611374,2.423011322,12.92291102
10.81565983,3.835474091,12.60169464,3.386407928,13.60078409
10.82563483,3.830983429,11.98812057,3.577111359,13.08385244
10.83561083,2.384840698,10.8344696,2.615660706,11.39802078
10.84558683,1.347797241,10.21221359,1.177002411,10.36779622
10.85556283,0.5746549988,9.69294342,-0.516126709,9.723670464
10.86553883,-0.2838098145,9.014853516,-1.769470367,9.191254392
10.87551483,-0.8976832581,8.597072296,-2.48647934,8.994335262
10.88549083,-1.278042297,8.464298401,-2.348017273,8.876425218
10.89546683,-1.550924835,8.292904816,-1.326691132,8.540359915
10.90544283,-1.6217276,8.205636292,0.05284011841,8.364523862
10.91541883,-1.5925383,8.141120453,1.028211823,8.358901843
10.92539383,-1.533261566,8.055348816,1.763931885,8.387549778
10.93536983,-1.521436157,7.977510681,2.02304306,8.369477156
10.94534583,-1.71887558,7.761659546,1.640588379,8.117229971
10.95532183,-2.099683685,7.304510193,1.1373349,7.684924945
10.96529783,-2.309397583,6.849905548,0.7845185852,7.271175464
10.97527383,-2.151176605,6.591542816,0.6556365967,6.964614622
10.98524983,-1.455722809,6.576424255,0.5357359314,6.75688522
10.99522583,-0.276026001,6.779701538,0.4068539429,6.797504941
11.00520183,0.4535568237,6.79931076,0.6864724731,6.848911232
11.01517783,0.8493338013,6.705455933,1.21457428,6.867291886
11.02515283,1.011296997,6.647825775,1.607207794,6.913712899
11.03512883,1.027164001,6.599027252,1.76093811,6.906745224
11.04510483,1.025816803,6.623127136,1.844614105,6.951310263
11.05508083,0.8842112732,6.836433563,1.790726166,7.122173379
11.06505683,0.6240522766,7.207062836,1.853745117,7.467768537
11.07503283,0.2496807861,7.678432617,2.081271973,7.959419638
11.08500883,-0.412691803,7.985743561,2.470911713,8.369457535
11.0949855,-1.037941589,8.197553101,3.040327606,8.804589231
11.1049615,-1.410666504,8.684640198,3.526067505,9.478718658
11.1149375,-1.722168732,9.368717651,4.039799194,10.34691805
11.1249135,-2.032922516,10.18212616,4.586013336,11.35077026
11.1348885,-2.55084549,10.77309723,5.22563324,12.24229061
11.1448645,-3.056194611,11.20090759,5.941594391,13.04236176
11.1548405,-3.439397736,11.60865967,6.085145874,13.55062494
11.1648165,-3.814068604,11.66554138,5.955066376,13.64165645
11.1747925,-4.081712036,11.33682495,5.161566467,13.10823182
11.1847685,-4.257147217,10.69495972,4.272116089,12.27829148
11.1947445,-4.065695343,10.10832962,3.598965912,11.47435236
11.2047205,-3.567531281,9.92705658,3.366948395,11.0729433
11.2146965,-2.978057098,10.8557254,3.588787079,11.81503241
11.2246725,-2.239642639,12.56951157,3.369642792,13.20466254
11.2346475,-1.874402161,14.02733002,2.363884277,14.34807721
11.2446235,-2.235750732,15.24160492,1.848655701,15.51523863
11.2545995,-3.017275543,15.57810516,-0.008831634521,15.86762081
11.2645755,-3.213367767,14.81065109,-2.802621918,15.41219672
11.2745515,-2.294728088,13.60401031,-3.43999649,14.2185952
11.2845275,-0.9910890198,12.37506592,-3.207978973,12.82246634
11.2945035,-0.1733395386,10.95377151,-3.638483734,11.54355755
11.3044795,0.004790039062,9.401948547,-3.495531006,10.03072263
11.3144555,0.229921875,8.402776337,-2.423759766,8.748378457
11.3244315,0.6092330933,7.739056549,-1.304537201,7.871847213
11.3344075,1.710792389,7.243886261,1.834435272,7.665888828
11.3443825,3.527265015,6.997648315,6.089337158,9.924147694
11.3543585,4.104764099,7.492519226,4.804109802,9.801347033
11.3643345,3.252586212,8.266409912,0.1603166199,8.884736987
11.3743105,1.875899048,8.413104858,-3.716621246,9.386831419
11.3842865,1.002165985,8.302335205,-5.563480682,10.04417363
11.3942625,0.4203259277,8.119415588,-5.16590744,9.632662304
11.4042385,0.02185455322,8.122409363,-3.920048218,9.018912878
11.4142145,0.163460083,8.523575134,-2.785856781,8.968781984
11.4241905,0.5986051941,9.127269745,-1.909728699,9.344112846
11.4341665,0.8550219727,9.717791748,-1.394500122,9.854499968
11.4441425,0.8159532166,10.14425491,-0.7610174561,10.20543164
11.4541175,0.5324427795,10.49542465,-0.1730401611,10.51034618
11.4640935,0.2815644836,10.78043198,0.2225871277,10.7864052
11.4740695,-0.2032772827,10.91140961,1.358874207,10.99757793
11.4840455,-1.031205597,10.74779984,3.718118134,11.4194128
11.4940215,-1.7995578,10.50216064,4.826862488,11.69753769
11.5039975,-2.286495209,10.34663406,3.608995056,11.19400474
11.5139735,-2.625390472,10.14230896,2.057172089,10.67665974
11.5239495,-2.785108337,9.908195801,0.8518785095,10.32738444
11.5339255,-2.79184433,9.710007935,0.3020718384,10.10791256
11.5439015,-2.732717285,9.415570221,0.4011657715,9.812320843
11.5538775,-2.503843231,9.222771149,0.6204597473,9.576727462
11.5638535,-2.088157654,9.10556488,0.3451821899,9.348308132
11.5738285,-1.792971497,8.987759857,-0.2462379456,9.168162693
11.5838045,-1.711989899,8.892108765,-1.102158051,9.12223986
11.5937805,-1.734592896,8.768166504,-1.771715698,9.111999389
11.6037565,-1.731599121,8.683143311,-1.980381775,9.072889575
11.6137325,-1.633852386,8.719068604,-1.951791229,9.083012713
11.6237085,-1.496288452,8.719667358,-1.679357758,9.005094139
11.6336845,-1.447489929,8.783734131,-1.18882782,8.981231762
11.6436605,-1.533111877,8.8305867,-0.8816665649,9.005944117
11.6536365,-1.76333313,8.966204681,-0.7550299072,9.169091573
11.6636125,-1.965263214,9.217681732,-0.5785469055,9.442596705
11.6735885,-2.119442596,9.447753296,0.008083190918,9.682569111
11.6835645,-2.322420502,9.52798645,0.7993377686,9.839466634
11.6935395,-2.477947083,9.462871857,1.282982025,9.865708712
11.7035155,-2.481539612,9.398056641,1.107097778,9.783004291
11.7134915,-2.152523804,9.466913452,0.4837939453,9.720589777
11.7234675,-1.742077332,9.551337891,-0.02200424194,9.708932646
11.7334435,-1.683998108,9.423653412,-0.2532733154,9.576285325
11.7434195,-1.655108185,9.326355743,-0.4869374084,9.484587634
11.7533955,-1.653760986,9.326056366,-0.798589325,9.505156372
11.7633715,-1.711091766,9.317224731,-1.044677582,9.530470239
11.7733475,-1.902094574,9.339827728,-1.150357819,9.600711894
11.7833235,-2.050735474,9.407337341,-1.193617859,9.701970698
11.7932995,-2.174228668,9.554780731,-1.133592682,9.864387335
11.8032755,-2.341580658,9.713001709,-1.17475708,10.06009226
11.8132515,-2.336790619,9.870174866,-1.094374237,10.20189185
11.8232265,-2.095941467,10.07240433,-0.5828878784,10.30466195
11.8332025,-1.847907257,10.12569351,0.1324745178,10.29378355
11.8431785,-1.688039703,10.24768982,0.6906637573,10.40872908
11.8531545,-1.657802582,10.37088364,1.021625519,10.5521209
11.8631305,-1.671573944,10.52087173,1.186133423,10.71866662
11.8731065,-1.644779663,10.87308929,1.296603699,11.07296492
11.8830825,-1.955683136,11.42753632,1.290915527,11.66532236
11.8930585,-2.513572998,12.05488174,0.9334588623,12.34947645
11.9030345,-2.981499939,12.73476791,0.2189945984,13.08096382
11.9130105,-3.375181274,13.33277435,-0.2152523804,13.75503741
11.9229865,-3.660637665,13.78124176,-0.3622467041,14.26373427
11.9329625,-3.9654039,13.84935013,-0.3384461975,14.40983945
11.9429385,-4.243824921,13.6134407,-0.1618135071,14.26050495
11.9529135,-4.499343567,13.01678146,-0.3053649902,13.77584625
11.9628895,-4.565056915,11.9586319,-0.5583389282,12.8125081
11.9728655,-4.464466095,10.77189972,-0.3141966248,11.66464747
11.9828415,-4.037254486,9.690548401,0.8014334106,10.52845894
11.9928175,-3.318598938,8.817563782,1.914818115,9.614003244
12.0027935,-2.167342987,8.353977814,2.184108124,8.902620358
12.0127695,-0.9244775391,8.390950928,1.359472961,8.550490215
12.0227455,-0.1511856079,8.664132843,0.3984713745,8.674608605
12.0327215,-0.07110214233,8.724756775,-0.1740879822,8.72678308
12.0426975,-0.1047821045,9.059311066,-0.5631289673,9.077401088
12.0526735,-0.1628613281,9.48816925,-1.268611908,9.573988495
12.0626495,0.1221459961,10.50395691,-1.844614105,10.66539411
12.0726255,0.750838623,12.10906906,-1.655557251,12.24476141
12.0826005,1.280736694,12.98205368,-1.123862915,13.09339803
12.09257658,1.927990723,13.59472961,0.4540058899,13.73826564
12.10255258,2.753074951,14.06699753,1.971101074,14.46876223
12.11252858,3.535348206,13.95293472,2.411185913,14.59441303
12.12250458,3.968846741,12.99956726,2.018103333,13.74093281
12.13248058,3.362008667,11.59384048,1.440753937,12.15713829
12.14245658,1.652563477,10.3169957,0.5536985779,10.46317105
12.15243258,0.04026626587,9.625433807,-0.4803511047,9.637496279
12.16240858,-0.8566685486,9.17816391,-0.7770341492,9.250748933
12.17238458,-1.326990509,8.776549072,-1.024319916,8.935208376
12.18236058,-1.600920868,8.325986023,-1.095571747,8.548992241
12.19233658,-1.569186859,8.079598389,-0.8063731384,8.269975524
12.20231258,-1.261576538,7.880811768,-0.2959346008,7.98663551
12.21228858,-0.9779164124,7.643106079,0.2341131592,7.708968804
12.22226458,-0.7098239136,7.424410858,0.366587677,7.467269454
12.23223958,-0.4912783813,7.225175171,0.3393443298,7.249804499
12.24221558,-0.5281018066,6.93043808,0.1594184875,6.952357712
12.25219158,-0.6735992432,6.595584412,-0.2667453003,6.635256041
12.26216758,-0.8327183533,6.327192535,-0.5481600952,6.405252901
12.27214358,-0.9864486694,6.088289337,-0.6491999817,6.201758512
12.28211958,-0.9645941162,6.001769257,-0.3606001282,6.089475221
12.29209558,-0.6689588928,6.000422058,0.04400848389,6.037756837
12.30207158,-0.1487905884,6.115083618,0.5583389282,6.142322741
12.31204758,0.162412262,6.235882416,1.162781982,6.345444759
12.32202358,0.2535726929,6.312073975,1.5925383,6.514810451
12.33199958,0.1689985657,6.5267276,1.780697021,6.767393558
12.34197558,0.05508544922,6.838080139,1.770218811,7.063713544
12.35195158,-0.0390687561,7.251370697,1.819915466,7.476362462
12.36192758,-0.2073188782,7.707921295,2.100881195,7.991791639
12.37190258,-0.4731660461,8.175548859,2.520758057,8.568413297
12.38187858,-0.7593708801,8.657396851,3.110531616,9.230523891
12.39185458,-0.8174501038,9.109007721,4.107308807,10.02557888
12.40183058,-0.6888674927,9.710457001,5.202431488,11.03778995
12.41180658,-0.4843927002,10.50021469,6.186335449,12.19671641
12.42178258,-0.5881269836,11.09432922,7.078480225,13.17326522
12.43175858,-0.9123527527,11.67527115,7.576045532,13.94778871
12.44173458,-1.488654327,11.86792053,7.499404907,14.11753178
12.45171058,-2.198328552,11.70715485,6.622528381,13.62893999
12.46168658,-2.989732819,11.17575989,5.280269623,12.71681401
12.47166258,-3.600013733,10.59586578,4.140539703,11.93216408
12.48163858,-3.758384399,10.23092468,3.76182724,11.53033466
12.49161458,-3.546275482,10.58553726,3.986060944,11.85404365
12.50159058,-2.873873749,11.89636139,3.987408142,12.87175156
12.51156658,-2.054178314,13.54233856,3.572171631,14.1553874
12.52154158,-1.476230164,14.8742688,3.072360992,15.25983387
12.53151758,-1.327888641,15.427668,1.370699615,15.54525798
12.54149358,-1.204844513,14.46831299,-0.5194198608,14.52768144
12.55146958,-0.9538165283,12.61352005,-0.9294172668,12.68363002
12.56144558,-0.3432362366,10.65619034,-1.504371643,10.76732732
12.57142158,-0.06706054688,9.104517059,-2.812800751,9.529353392
12.58139758,-0.03173400879,8.088579712,-3.45286972,8.794796081
12.59137358,0.2553689575,7.617958374,-2.575843506,8.045711458
12.60134958,0.6143225098,7.666607208,-1.703457642,7.877564736
12.61132558,1.064885559,7.989186401,-1.523382111,8.202546779
12.62130158,1.539698181,8.396938477,-1.984722748,8.764608985
12.63127758,1.947899323,8.855584717,-2.143243103,9.317144597
12.64125358,2.200573883,9.178762665,-2.135758667,9.677482863
12.65122958,2.152224426,9.327702942,-2.226919098,9.828391568
12.66120558,1.826052704,9.276060333,-2.183209991,9.702894911
12.67118058,1.145717468,8.8903125,-2.282902679,9.249971325
12.68115658,0.6185137939,8.784183197,-2.55892868,9.170199002
12.69113258,0.2903961182,8.927884369,-2.813848572,9.365318628
12.70110858,0.001646575928,9.093739471,-2.808908844,9.517671416
12.71108458,-0.1513352966,9.392069092,-2.340981903,9.680602278
12.72106058,-0.2414479065,9.81119751,-1.651815033,9.952205111
12.73103658,-0.3559597778,10.35187317,-0.6792874146,10.38024166
12.74101258,-0.6114784241,10.85827011,0.5962101746,10.89180436
12.75098858,-1.218316498,11.25494522,3.007994843,11.71350161
12.76096458,-2.023342438,11.44055923,4.85814743,12.59293082
12.77094058,-2.715353394,11.19626724,3.940555573,12.17610457
12.78091658,-3.312611389,10.61487625,1.617236938,11.23674541
12.79089258,-3.704795837,9.982291718,-0.5586383057,10.66225759
12.80086858,-3.874093781,9.499695282,-1.827399902,10.4207583
12.81084458,-3.89519989,9.074579315,-2.101929016,10.09646857
12.82082058,-3.869752808,8.552914124,-1.681752777,9.537065544
12.83079658,-3.755240936,8.055049438,-0.7081773376,8.915557811
12.84077158,-3.37682785,8.086783447,-0.02978805542,8.763556366
12.85074758,-2.625839539,8.595874786,-0.283510437,8.99246767
12.86072358,-2.096091156,8.932674408,-0.8599617004,9.215519754
12.87069958,-1.960323486,8.734785919,-1.271605682,9.041920937
12.88067558,-1.919608154,8.538843384,-1.110989685,8.822190197
12.89065158,-2.012415161,8.501720581,-0.8470884705,8.777620776
12.90062758,-1.857936401,8.605155487,-0.6219566345,8.825387169
12.91060358,-1.718725891,8.776549072,-0.6486012268,8.966744998
12.92057958,-1.612446899,9.128766632,-0.6819818115,9.295131221
12.93055558,-1.410965881,9.376501465,-0.7426057434,9.51110234
12.94053158,-1.355880432,9.444160767,-0.5709127808,9.558060773
12.95050758,-1.265618134,9.513616333,-0.189206543,9.599296021
12.96048358,-1.154549103,9.616751862,0.1901046753,9.687674633
12.97045958,-1.09407486,9.657018127,0.3847000122,9.726406994
12.98043558,-0.9942324829,9.505533142,0.3689826965,9.56450766
12.99041158,-0.9466314697,9.261989594,0.3710783386,9.317631754
13.00038658,-0.9410929871,9.104816437,0.3113525391,9.158617732
13.01036258,-0.9852511597,8.945397949,0.1258882141,9.00037289
13.02033858,-1.078207855,8.90902359,-0.2450404358,8.977375915
13.03031458,-1.371597748,8.958570557,-0.7143145752,9.09106771
13.04029058,-1.894460449,9.15361496,-1.013392639,9.402372672
13.05026658,-2.358794861,9.479786682,-1.208137665,9.843264974
13.06024258,-2.701582031,9.734706573,-1.319955139,10.18849052
13.07021858,-2.955304413,9.815538483,-1.042881317,10.3036994
13.08019458,-3.08673111,9.815987549,-0.6652166748,10.3113546
13.09017058,-3.132386169,9.821526031,-0.4555027771,10.31899702
13.10015033,-3.023861847,9.738299103,-0.4581971741,10.20725989
13.11012633,-2.80352005,9.602980499,-0.4408332825,10.01355547
13.12010233,-2.589764557,9.531728668,-0.1760339355,9.87885215
13.13007833,-2.480042725,9.517059174,0.3197351074,9.840084236
13.14005433,-2.401306458,9.566157074,0.8930429077,9.903290337
13.15003033,-2.324516144,9.686057739,1.46260849,10.06788525
13.16000633,-2.336191864,9.855804749,1.498084717,10.2390887
13.16998133,-2.423310699,10.39812698,0.9746232605,10.72116458
13.17995733,-2.695744171,11.43187729,-0.1384620667,11.74623458
13.18993333,-3.065026245,12.71201523,-1.625469818,13.17694461
13.19990933,-3.500021667,13.64816849,-2.830314331,14.37126765
13.20988533,-3.805386658,14.15007477,-3.141068115,14.98572295
13.21986133,-3.857178955,14.28868652,-2.445764008,15.00087176
13.22983733,-3.816164246,14.07478134,-0.6869215393,14.59912465
13.23981333,-3.501368866,13.52811813,1.603615265,14.06560152
13.24978933,-2.505489807,12.5240062,2.539918213,13.02226535
13.25976533,-1.567091217,11.93632828,1.797611847,12.17222724
13.26974133,-0.8313711548,11.53336624,0.8298742676,11.59303266
13.27971733,-0.2880010986,11.04313568,0.1411564636,11.04779233
13.28969333,0.00209564209,10.71097641,-0.4743635559,10.72147568
13.29966933,0.02439926147,10.43659698,-1.18298996,10.50345739
13.30964533,-0.04849914551,10.4681813,-1.669029236,10.60051086
13.31962133,-0.2317181396,10.76636124,-1.254990234,10.84173547
13.32959733,-0.05478607178,11.54564072,-1.174308014,11.60533586
13.33957333,0.1898052979,12.06042023,-1.097068634,12.11170185
13.34954833,0.5234614563,12.22522751,-0.7424560547,12.25893309
13.35952433,1.150657196,12.12194229,-0.3715274048,12.18209873
13.36950033,1.964814148,11.89710983,0.2535726929,12.06092932
13.37947633,2.719544678,11.33502869,0.7312294006,11.67961879
13.38945233,2.813549194,10.49572403,1.567390594,10.97875199
13.39942833,2.266137543,9.831854553,2.251917114,10.33788537
13.40940433,1.759291534,9.383387146,1.930086365,9.740035647
13.41938033,1.031954041,8.995843048,0.7506889343,9.085904202
13.42935633,0.1085243225,8.539591827,-0.4890330505,8.554271414
13.43933233,-0.4867877197,8.336613922,-1.249002686,8.443701894
13.44930833,-0.8271798706,8.354277191,-1.924398193,8.612867254
13.45928433,-1.097817078,8.380622406,-1.967658234,8.678232146
13.46926033,-1.20170105,8.406668243,-1.453327789,8.615585763
13.47923633,-1.174457703,8.430618439,-0.5918692017,8.532583859
13.48921233,-0.8493338013,8.600515137,0.2215393066,8.645189887
13.49918833,-0.540226593,8.654253387,0.6815327454,8.697840729
13.50916433,-0.4234693909,8.646170197,0.7538323975,8.689295062
13.51914033,-0.4951702881,8.471633148,0.9463320923,8.538694645
13.52911533,-0.8595126343,8.097561035,1.025367737,8.207352538
13.53909133,-0.9598040771,7.664960632,1.019080811,7.791750192
13.54906733,-0.915945282,7.207661591,0.9550140381,7.328123442
13.55904333,-0.7129673767,6.650370483,0.7366181946,6.728919409
13.56901933,-0.2103126526,6.35234024,0.423918457,6.369942292
13.57899533,0.09310638428,6.262377319,0.422870636,6.277328896
13.58897133,0.1987866211,6.293063507,0.5010081482,6.316104305
13.59894733,0.3025209045,6.539451141,0.5586383057,6.570237202
13.60892333,0.4067042542,7.03566925,0.6373745728,7.0761781
13.61889933,0.4701722717,7.646099854,0.8969348145,7.712872163
13.62887533,0.1877096558,8.016130371,1.366059265,8.133861258
13.63885133,-0.2981799316,8.168663177,1.864672394,8.384090441
13.64882733,-0.6331832886,8.463400269,2.293530579,8.791492916
13.65880333,-0.9099577332,8.737330627,2.844085693,9.233514661
13.66877933,-1.125210114,9.042545929,3.477718048,9.753371596
13.67875533,-1.165476379,9.448052673,4.075874176,10.35551953
13.68873133,-1.245410156,9.722432098,4.814288635,10.9203529
13.69870733,-1.417552185,10.05459137,5.451363831,11.52482665
13.70868233,-1.782942352,10.43929138,5.9826091,12.16344111
13.71865833,-2.146087189,11.0495723,6.043083344,12.77566415
13.72863433,-2.690056,11.30449219,5.657185822,12.92407429
13.73861033,-3.314407654,11.32784363,4.782704315,12.73497546
13.74858633,-3.867956543,11.10750183,3.894152069,12.38959665
13.75856233,-4.42644516,10.52820648,3.195255432,11.85943531
13.76853833,-4.864584045,9.683213654,2.755469971,11.18129775
13.77851433,-5.021757202,8.730145569,2.708467712,10.42925138
13.78849033,-4.568948822,7.967930603,2.623594208,9.552301189
13.79846633,-3.444636841,7.698191528,2.239942017,8.726111162
13.80844233,-2.334844666,7.952063599,1.889520721,8.500417851
13.81841833,-1.573976898,9.036708069,1.807491302,9.349145459
13.82839433,-0.952918396,10.47641418,1.532363434,10.63068414
13.83837033,-0.2812651062,11.97494797,1.554068298,12.07864302
13.84834633,0.1263372803,13.2684082,2.12258606,13.43770773
13.85832233,0.2986289978,14.1749231,2.545756073,14.40480816
13.86829833,0.1169068909,14.66919525,2.39636673,14.86410206
13.87827433,-0.3246748352,14.56276657,1.725461884,14.66822425
13.88825033,-0.759969635,14.05532181,1.176104279,14.12490164
13.89822633,-0.9903405762,13.19191727,0.7167095947,13.24843871
13.90820133,-0.9416917419,11.80624878,-0.4360432434,11.85176895
13.91817733,-0.656534729,10.30816406,-1.905238037,10.50329549
13.92815333,-0.2890489197,8.972940674,-2.73571106,9.385165348
13.93812933,-0.09265731812,7.965385895,-2.718945923,8.417162513
13.94810533,-0.09939331055,7.231312408,-2.200274506,7.559296666
13.95808133,0.1919009399,6.964267731,-1.359472961,7.098310907
13.96805733,0.8104147339,6.887028351,-0.200433197,6.937442253
13.97803333,1.538201294,6.845265198,0.8514294434,7.067435953
13.98800933,2.026336212,7.080126801,0.6493496704,7.392962123
13.99798533,1.969155121,7.423512726,-1.025517426,7.748406228
14.00796133,1.393751678,7.453749847,-2.68062561,8.042803255
14.01793733,0.822689209,7.586523743,-3.505709839,8.397747407
14.02791333,0.5245092773,8.112080841,-3.520529022,8.858616718
14.03788933,0.3176394653,8.943451996,-3.272045746,9.528510471
14.04786533,0.0983454895,9.642049255,-2.86668869,10.05965654
14.05784133,-0.01871109009,10.35486694,-2.292632446,10.60564864
14.06781733,-0.1637594604,11.09208389,-1.705702972,11.22366094
14.07779333,-0.3192860413,11.62512543,-1.135388947,11.68480179
14.08776933,-0.4623884583,11.93917236,-0.1755848694,11.94941295
14.09774,-0.9511221313,11.84037781,1.677411804,11.99636988
14.107716,-1.74102951,11.40583145,3.97363678,12.20303094
14.117692,-2.459086304,10.74974579,4.010160828,11.73394775
14.127668,-3.126248932,9.941127319,2.266586609,10.66474846
14.137644,-3.543880463,9.384884033,0.5912704468,10.04911627
14.14762,-3.737577667,8.961115265,-0.4129911804,9.718108629
14.157596,-3.648512878,8.490942993,-0.7430548096,9.271455635
14.167572,-3.089874573,8.14965271,-0.5278024292,8.731708858
14.177548,-2.09444458,8.265661469,0.0245489502,8.526925604
14.187524,-1.29181366,8.633596344,0.5252577209,8.745493927
14.1975,-1.062789917,8.695118408,0.422870636,8.770029995
14.207476,-1.173858948,8.634943542,-0.1082249451,8.715039154
14.217452,-1.377585297,8.577163696,-0.6354286194,8.710295509
14.227428,-1.626068573,8.484207001,-0.9077124023,8.686184965
14.237404,-1.761387177,8.402626648,-1.033450928,8.647233094
14.24738,-1.777104492,8.548423462,-0.9042695618,8.777889695
14.257356,-1.609602814,8.941955109,-0.6044430542,9.105752785
14.267332,-1.577419739,9.239835663,-0.2329156494,9.37641007
14.277308,-1.830094299,9.361682281,-0.1079255676,9.539496224
14.287284,-2.219883728,9.427695007,-0.005239105225,9.685522411
14.297259,-2.564616852,9.402547302,0.03622467041,9.746100122
14.307235,-2.631078644,9.472152557,0.07364685059,9.831056543
14.317211,-2.548749847,9.589807892,0.005987548828,9.922730322
14.327187,-2.432890778,9.655970306,-0.1106199646,9.958361154
14.337163,-2.264790344,9.638756104,-0.0904119873,9.901670003
14.347139,-2.061513062,9.613608398,-0.07349716187,9.832431254
14.357115,-1.855242004,9.50583252,-0.01167572021,9.685190298
14.367091,-1.754202118,9.327403564,0.0043409729,9.490927308
14.377067,-1.734592896,9.180259552,-0.02948867798,9.342743041
14.387043,-1.754651184,9.051377563,-0.196690979,9.221980477
14.397019,-1.842219086,8.983418884,-0.4718188477,9.182494162
14.406995,-1.895657959,9.010362854,-0.7601193237,9.238936045
14.416971,-1.990560608,9.150471497,-0.905766449,9.408181174
14.426947,-2.040406952,9.428443451,-0.7491920471,9.675747783
14.436923,-2.050735474,9.690398712,-0.3354524231,9.910694805
14.446899,-2.136507111,9.855505371,0.1140628052,10.0850711
14.456875,-2.142644348,10.05533981,0.4980143738,10.29314344
14.466851,-2.211950226,10.37387741,0.6144721985,10.62485917
14.476827,-2.460283813,10.91829529,0.4379891968,11.20062512
14.486803,-2.925366669,11.66494263,0.1344204712,12.02691671
14.496778,-3.351231079,12.49571503,0.1261875916,12.93791201
14.506754,-3.667822723,13.31316513,0.1005908203,13.80954046
14.51673,-3.910767517,13.88063507,-0.3664379883,14.42568575
14.526706,-4.01569931,14.01804932,-1.030756531,14.61827646
14.536682,-4.166585541,13.87644379,-1.313817902,14.54792922
14.546658,-4.369563446,13.2844249,-0.8485853577,14.01032215
14.556634,-4.746329956,12.29932343,0.1588197327,13.18431752
14.56661,-4.640649719,11.49115402,1.615290985,12.4976564
14.576586,-3.470383301,11.22126526,2.11195816,11.93401531
14.586562,-2.310295715,11.02786743,1.540296936,11.37206406
14.596538,-1.49419281,10.58299255,0.9229806519,10.72773214
14.606514,-0.7303312683,10.15533188,0.1748364258,10.1830603
14.61649,-0.2398013306,9.767338715,-0.8008346558,9.803047811
14.626466,0.1100212097,9.210047607,-1.578916626,9.34505534
14.636442,0.3818559265,8.869805145,-2.208208008,9.148521185
14.646418,0.6176156616,9.037456512,-1.97978302,9.272357312
14.656394,0.8704399109,9.514514465,-1.417252808,9.658791678
14.66637,1.166823578,9.937235413,-0.75353302,10.03383959
14.676346,1.513951721,10.31445099,-0.2576142883,10.42815008
14.686322,1.754651184,10.73522598,0.390687561,10.88469175
14.696298,2.162253571,11.21991806,1.391506348,11.51078589
14.706273,2.891087952,11.64473465,2.226020966,12.20300799
14.716249,3.811972961,11.89531357,2.455942841,12.73032906
14.726225,4.310885468,11.58860138,2.302212524,12.57694708
14.736201,3.480412445,10.7323819,1.590742035,11.39419818
14.746177,1.578317871,9.700278168,0.7442523193,9.855982719
14.756153,0.3658392334,9.016949158,0.01960922241,9.024388898
14.766129,-0.3986210632,8.515042877,-0.3743714905,8.532585069
14.776105,-0.8092172241,8.055648193,-0.5578898621,8.115389173
14.786081,-1.073567505,7.736960907,-0.720302124,7.844230135
14.796057,-1.153201904,7.553442535,-0.9369017029,7.698191578
14.806033,-1.171463928,7.479047241,-1.093326416,7.648780166
14.816009,-0.9943821716,7.54940094,-0.8711883545,7.664282067
14.825985,-0.7933502197,7.775730286,-0.3989204407,7.82627137
14.835961,-0.8765771484,7.811206512,0.620609436,7.884699788
14.845937,-1.125359802,7.580386505,1.405128021,7.79121807
14.855913,-1.24032074,7.372468872,1.860331421,7.704059047
14.865889,-1.343605957,7.009773102,1.855391693,7.374596548
14.875865,-1.399888916,6.746171265,1.659898224,7.087014733
14.885841,-1.245859222,6.668183441,1.343007202,6.915237086
14.895817,-0.7550299072,6.785090332,0.9583071899,6.893901192
14.905793,0.09056167603,6.845115509,0.7515870667,6.886849125
14.915769,0.5908213806,6.786587219,0.8363108826,6.863399441
14.925745,0.6342311096,6.67297348,0.9635462952,6.771945483
14.93572,0.7315287781,6.703210602,1.088686066,6.830329719
14.945696,0.940045166,6.934180298,1.285676422,7.114738588
14.955672,1.110540619,7.294181671,1.626068573,7.555295211
14.965648,1.246008911,7.800578613,2.014959869,8.152400149
14.975624,1.177900543,8.380772095,2.711012421,8.886753003
14.9856,0.503253479,8.983568573,3.966002655,9.83295202
14.995576,-0.4619393921,9.590406647,5.420527954,11.02594263
15.005552,-0.9653425598,10.40905426,6.76892395,12.45385998
15.015528,-1.274150391,11.44954056,8.00924469,14.03080321
15.025504,-1.641336823,12.400513,8.660540314,15.21419297
15.03548,-2.070344696,13.0946196,8.262368317,15.62120737
15.045456,-2.450703735,13.52422623,7.211852875,15.52164507
15.055432,-2.960842896,13.40073303,5.951324158,14.95875983
15.065408,-3.540138245,12.39886642,4.987478485,13.82531768
15.075384,-4.051325226,10.94479019,4.388723602,12.46846275
15.08536,-4.16434021,9.466464386,3.879632263,11.04568802
15.09533608,-3.426075439,8.327632599,3.281476135,9.584129759
15.10531208,-2.004032593,7.777376862,2.7099646,8.476299052
15.11528808,-0.9752220154,7.732619934,2.0862117,8.068255591
15.12526408,-0.518821106,8.486901398,1.44269989,8.624271195
15.13524008,-0.3980223083,9.53038147,0.9499246216,9.585872391
15.14521608,-0.3213816833,10.50620224,0.6819818115,10.5332175
15.15519108,-0.1561253357,11.58366165,1.135538635,11.64023369
15.16516708,-0.0592767334,12.50873795,1.634301453,12.61518846
15.17514308,-0.1820214844,13.0401329,1.878593445,13.17601272
15.18511908,-0.5047503662,13.66433487,2.412832489,13.88490479
15.19509508,-1.169817352,13.67301682,1.658401337,13.8228129
15.20507108,-1.189426575,13.15599197,-1.085542603,13.25417908
15.21504708,-0.4092489624,12.60843063,-3.736829224,13.15689555
15.22502308,0.1124162292,11.63844772,-4.018992462,12.31334249
15.23499908,0.0860710144,10.33226395,-2.938838654,10.74243264
15.24497508,-0.006735992432,9.151369629,-1.441951447,9.264277383
15.25495108,0.1660047913,8.258177032,-0.0549357605,8.260028053
15.26492708,0.6759942627,7.678731995,1.393302612,7.833338079
15.27490308,1.314865723,7.25915451,2.43498642,7.768742172
15.28487908,1.443148956,7.021149445,1.575773163,7.339092552
15.29485508,0.9595046997,6.800208893,-0.7355703735,6.906848343
15.30483108,0.4108955383,6.699618073,-3.139571228,7.410170373
15.31480708,0.2167492676,6.789580994,-4.174968109,7.973440225
15.32478308,0.3697311401,7.122189331,-3.82499588,8.092766861
15.33475908,0.3547622681,7.602839813,-2.669698334,8.065749729
15.34473508,0.03218307495,8.450976105,-1.183439026,8.5334964
15.35471108,-0.5304968262,9.556876373,0.3126997375,9.57669536
15.36468708,-0.8897497559,10.66921326,1.279239807,10.78240329
15.37466308,-1.216220856,11.34610565,1.163231049,11.47024032
15.38463808,-1.442101135,11.58785294,0.1242416382,11.67790338
15.39461408,-1.753603363,11.50717072,-0.938997345,11.6778345
15.40459008,-2.146087189,11.43187729,-0.8881031799,11.66542909
15.41456608,-2.625989227,11.16588043,0.08322692871,11.47081653
15.42454208,-3.211571503,10.27553192,1.469943237,10.86561001
15.43451808,-3.654500427,9.335935822,2.153272247,10.25434798
15.44449408,-3.845802612,8.731343079,1.842668152,9.717097077
15.45447008,-3.693718872,8.380323029,1.202150116,9.236803455
15.46444608,-3.087180176,8.333620148,0.5731581116,8.905527296
15.47442208,-2.319277039,8.371192017,0.3996688843,8.695725213
15.48439808,-1.619033203,8.327033844,0.7723937988,8.518060421
15.49437408,-1.095871124,8.276738434,0.8265811157,8.389789566
15.50435008,-0.7409591675,8.165220337,0.5563929749,8.217628416
15.51432608,-0.6589297485,8.008196869,0.1451980591,8.036571905
15.52430208,-0.5310955811,8.123008118,-0.3547622681,8.14807828
15.53427808,-0.4592449951,8.243357849,-0.923429718,8.307621623
15.54425408,-0.5739065552,8.365803223,-1.139131165,8.462484984
15.55423008,-0.8177494812,8.599467316,-1.021176453,8.698410986
15.56420608,-1.052461395,8.754245453,-0.7095245361,8.84578507
15.57418208,-1.685944061,8.803942108,-0.4231700134,8.973899759
15.58415808,-2.14354248,8.983568573,-0.3128494263,9.241058026
15.59413408,-2.230960693,9.248517609,-0.3763174438,9.521233029
15.60410908,-2.386187897,9.404044189,-0.5074447632,9.71531986
15.61408508,-2.549947357,9.582323456,-0.4586462402,9.926404722
15.62406108,-2.777623901,9.671088867,-0.03742218018,10.06213471
15.63403708,-2.905009003,9.711953888,0.3626957703,10.14360261
15.64401308,-2.900967407,9.688003693,0.5739065552,10.12928409
15.65398908,-2.61625946,9.573791199,0.6325845337,9.944971326
15.66396508,-2.374961243,9.504485321,0.6830296326,9.82049956
15.67394108,-2.346520386,9.462273102,0.6991960144,9.773926808
15.68391708,-2.559527435,9.533674622,0.4297563171,9.880628673
15.69389308,-2.859803009,9.683812408,0.0462538147,10.09736775
15.70386908,-3.094514923,9.772278442,-0.2082170105,10.25264858
15.71384508,-3.32892746,9.726174316,-0.3200344849,10.28506913
15.72382108,-3.427871704,9.688003693,-0.4061054993,10.28458272
15.73379708,-3.516337738,9.808952179,-0.3508703613,10.4260867
15.74377308,-3.490890656,10.33615585,-0.3600013733,10.91567847
15.75374908,-3.496878204,11.22141495,-0.4282594299,11.76145045
15.76372508,-3.463048553,12.30141907,-0.193996582,12.78105047
15.77370108,-3.432961121,13.41719879,0.3394940186,13.85358082
15.78367708,-3.516786804,14.29138092,0.698896637,14.7343074
15.79365308,-3.710933075,14.72937012,0.5507048035,15.19962645
15.80362908,-3.802093506,14.91049347,-0.4445755005,15.39403709
15.81360508,-3.735182648,14.82591934,-1.60421402,15.37312513
15.82358108,-3.229833527,14.44316528,-1.653611298,14.89198705
15.83355608,-2.258653107,13.44803467,-0.4936734009,13.64532388
15.84353208,-1.483864288,12.14155151,1.66274231,12.34438489
15.85350808,-0.7328759766,11.17336487,3.917952576,11.86303258
15.86348408,-0.0470022583,10.54182816,4.354744263,11.40596983
15.87346008,0.2891986084,10.22553589,2.616109772,10.55884702
15.88343608,0.4486170959,9.884395294,-0.2034269714,9.896661567
15.89341208,0.5484594727,9.589957581,-2.156715088,9.844770904
15.90338808,0.6664141846,9.49176178,-2.977458344,9.970100688
15.91336408,0.9463320923,9.715396729,-3.558699646,10.38984221
15.92334008,1.316961365,10.13886612,-3.193010101,10.71103669
15.93331608,1.739682312,10.53658905,-2.812201996,11.04330944
15.94329208,2.086810455,10.63538361,-2.114951935,11.04260766
15.95326808,2.262545013,10.55470139,-0.4327500916,10.8031525
15.96324408,2.452200623,10.54856415,1.362915802,10.91526605
15.97322008,2.277064819,10.24739044,2.953208771,10.90483733
15.98319608,2.033221893,9.675280151,3.606001282,10.52370099
15.99317208,1.72935379,9.033564606,3.094365234,9.704176947
16.00314808,1.128652954,8.455466766,2.03127594,8.768971301
16.01312408,0.2945874023,8.014633484,0.9228309631,8.072964053
16.02310008,-0.309256897,7.856861572,0.3013233948,7.868717137
16.03307608,-0.7146139526,7.961793365,-0.1016386414,7.994445391
16.04305208,-1.092428284,8.075556793,-0.1969903564,8.151492028
16.05302708,-1.406774597,8.046816559,-0.2555186462,8.172855148
16.06300308,-1.609902191,7.94607605,-0.2511776733,8.111411707
16.07297908,-1.746268616,7.72019577,-0.2785707092,7.920131214
16.08295508,-1.67786087,7.518714752,-0.08936416626,7.704172543
16.09293108,-1.528621216,7.311246185,0.3480262756,7.477441133
16.10290725,-1.413660278,7.170688477,0.7426057434,7.346337312
16.11288325,-1.406624908,7.054380341,0.9560618591,7.256509485
16.12285925,-1.31396759,7.028334503,1.010548553,7.221163694
16.13283525,-1.111139374,7.104226685,1.022523651,7.262934814
16.14281125,-0.55579422,7.148983612,1.013093262,7.24176994
16.15278725,-0.3619473267,7.042854309,1.082848206,7.134799431
16.16276325,-0.352666626,6.944059753,1.183439026,7.05300415
16.17273925,-0.2396516418,6.980583801,1.259331207,7.097316268
16.18271525,-0.1392105103,7.016658783,1.36082016,7.148755944
16.19269125,-0.07065307617,7.166197815,1.461560669,7.314064709
16.20266725,0.03128494263,7.363936615,1.611997833,7.538373713
16.21264325,0.1769320679,7.66990036,1.889371033,7.901164433
16.22261925,0.3299139404,8.019872589,2.32960556,8.357886193
16.23259525,0.4532574463,8.480913849,3.023861847,9.015269408
16.24257125,0.562230835,8.9991362,4.003125458,9.865372233
16.25254725,0.4559518433,9.605375519,5.119953003,10.89426683
16.26252225,-0.1294807434,10.21296204,6.120472412,11.90720544
16.27249825,-0.8809181213,10.73118439,6.947203217,12.81397548
16.28247425,-1.511257324,11.3693074,7.37276825,13.63461628
16.29245025,-2.057770844,11.71119644,7.307803345,13.95673789
16.30242625,-2.47001358,11.91731781,6.493796082,13.7946663
16.31240225,-2.848276978,11.70880142,5.527854767,13.2576729
16.32237825,-3.16741333,11.22455841,4.868326263,12.63818893
16.33235425,-3.166066132,10.57850189,4.396357727,11.8851436
16.34233025,-2.614762573,10.15922379,4.329746246,11.348723
16.35230625,-1.699565735,10.10189301,4.711302795,11.27533325
16.36228225,-0.798589325,10.52970337,4.666396179,11.54502712
16.37225825,-0.2318678284,10.95511871,4.050427094,11.6822236
16.38223425,0.3433859253,11.46331192,3.3230896,11.94019927
16.39221025,0.6089337158,11.91821594,1.892514496,12.08289215
16.40218625,0.4203259277,12.0156633,-0.4543052673,12.03159307
16.41216225,0.6732998657,12.17672836,-0.1878593445,12.1967757
16.42213825,0.8904981995,11.88812851,-0.07020401001,11.92164062
16.43211425,0.5646258545,11.06663681,-1.666933594,11.20570927
16.44209025,0.2026785278,10.53823563,-3.33820816,11.05618028
16.45206625,0.1360670471,10.57535843,-3.691323853,11.20190126
16.46204225,0.07499404907,10.75124268,-3.22130127,11.22370817
16.47201825,-0.106129303,10.41144928,-2.774630127,10.77534741
16.48199325,-0.2776725769,9.735305328,-2.533481598,10.06338914
16.49196925,-0.4704716492,9.05526947,-2.067051544,9.300104883
16.50194525,-0.4966671753,8.391399994,-1.366358643,8.516408168
16.51192125,-0.4983137512,7.788154449,-0.6036946106,7.827395065
16.52189725,-0.4101470947,7.330855408,0.3137475586,7.349020287
16.53187325,-0.3736230469,7.231761475,1.367107086,7.369324935
16.54184925,-0.5689668274,7.252867584,1.790426788,7.492225272
16.55182525,-0.7378157043,7.378755798,1.20753891,7.51322563
16.56180125,-0.636177063,7.750582581,0.1805245972,7.778742876
16.57177725,-0.369282074,8.257727966,-0.6228547668,8.289414242
16.58175325,-0.5046006775,8.869655457,-0.8713380432,8.926625328
16.59172925,-0.8619076538,9.429940338,-0.4387376404,9.479406643
16.60170525,-1.019978943,9.809101868,0.02724334717,9.862027109
16.61168125,-1.200952606,10.14620087,0.01676513672,10.21704264
16.62165725,-1.45437561,10.39618103,-0.3576063538,10.50350754
16.63163325,-1.616787872,10.56832306,-0.8369096375,10.72398587
16.64160925,-1.842817841,10.58089691,-1.06593338,10.7929408
16.65158525,-2.0570224,10.49677185,-0.9119036865,10.7352284
16.66156125,-2.383044434,10.2704425,-0.5077441406,10.55550539
16.67153725,-2.733465729,9.891730042,0.0520916748,10.26259576
16.68151325,-2.812501373,9.538614349,0.673150177,9.967369705
16.69148925,-2.319875793,9.420509949,1.042432251,9.757791573
16.70146525,-1.797761536,9.435029755,0.9071136475,9.647517203
16.71144125,-1.595532074,9.357640686,0.7134164429,9.519460322
16.72141625,-1.541793823,9.239236908,0.5468128967,9.382943631
16.73139225,-1.574276276,9.053323517,0.2597099304,9.192848402
16.74136825,-1.604962463,8.78612915,-0.01407073975,8.93152663
16.75134425,-1.62996048,8.515042877,-0.01347198486,8.669654426
16.76132025,-1.533411255,8.426726532,-0.1727407837,8.56684945
16.77129625,-1.391356659,8.490643616,-0.2829116821,8.608538864
16.78127225,-1.357826385,8.424930267,-0.1860630798,8.535675836
16.79124825,-1.359173584,8.493188324,-0.09774673462,8.601811156
16.80122425,-1.396146698,8.63988327,-0.1586700439,8.753398466
16.81120025,-1.291065216,8.777147827,-0.155975647,8.872964655
16.82117625,-1.206790466,9.026978302,-0.004939727783,9.107288559
16.83115225,-1.56679184,9.284293213,0.3451821899,9.421894071
16.84112825,-1.957479401,9.402397614,0.4854405212,9.616260135
16.85110425,-2.046095123,9.584568787,0.3790118408,9.80785981
16.86108025,-2.155367889,9.685159607,0.186512146,9.923845733
16.87105625,-2.205064545,9.705966339,-0.03382965088,9.953353036
16.88103225,-2.211650848,9.671088867,0.02200424194,9.920778374
16.89100825,-2.238445129,9.552236023,0.176333313,9.812591048
16.90098425,-2.281854858,9.435329132,0.1669029236,9.708766864
16.91096025,-2.229763184,9.438771973,0.09654922485,9.69905057
16.92093625,-2.102827148,9.448052673,-0.004640350342,9.679235655
16.93091225,-2.103425903,9.431736603,-0.02125579834,9.66346251
16.94088825,-2.208058319,9.3747052,0.0419128418,9.631322641
16.95086425,-2.333946533,9.377249908,-0.02409988403,9.663369137
16.96084025,-2.472109222,9.494156799,-0.1739382935,9.812267417
16.97081525,-2.656825104,9.604477386,-0.4555027771,9.975579596
16.98079125,-2.777025146,9.726473694,-0.6674620056,10.13714283
16.99076725,-2.816243591,9.787097626,-0.7990383911,10.21552594
17.00074325,-2.786904602,9.69997879,-0.7105723572,10.11737806
17.01071925,-2.690804443,9.512568512,-0.3252735901,9.89116733
17.02069525,-2.513572998,9.454189911,0.212258606,9.784927685
17.03067125,-2.339934082,9.696835327,0.6298901367,9.995032189
17.04064725,-2.280357971,10.19170624,0.7262896729,10.46892569
17.05062325,-2.308798828,10.94538895,0.4806504822,11.19656716
17.06059925,-2.494562531,11.90444458,0.08427474976,12.163295
17.07057525,-2.763852539,12.95510971,-0.04909790039,13.24674145
17.08055125,-3.142714691,13.79052246,0.09460327148,14.14440226
17.09052725,-3.66348175,14.1443866,-0.009131011963,14.61112091
17.100503,-4.085603943,13.88527542,-0.7948471069,14.49568263
17.110479,-4.124672699,13.51434677,-1.795516205,14.24339749
17.120455,-4.050576782,12.97187485,-2.123633881,13.75450945
17.130431,-4.101920013,12.15412537,-1.580862579,12.92469101
17.140407,-4.183500366,11.28323639,-0.5246589661,12.04526321
17.150383,-4.270020447,10.51218979,0.5432203674,11.35932644
17.160359,-4.129762115,9.75730957,1.125210114,10.65486382
17.170335,-3.192710724,9.36063446,1.171763306,9.959312653
17.180311,-1.748513947,9.383536835,0.8327183533,9.581309118
17.190287,-0.9557624817,9.288035431,0.1984872437,9.339190611
17.200263,-0.793200531,8.94300293,-0.7979905701,9.013504171
17.210239,-0.6830296326,8.682245178,-1.498683472,8.83707887
17.220215,-0.4596940613,8.659492493,-1.659748535,8.829093615
17.230191,0.03487747192,8.86576355,-1.643731842,9.016919326
17.240166,0.6162684631,9.12083313,-1.088985443,9.206262711
17.250142,1.251547394,9.600735168,-0.4242178345,9.691256236
17.260118,1.832639008,10.43360321,-0.5774990845,10.60905966
17.270094,2.531685333,11.25105331,-0.5713618469,11.54651834
17.28007,3.238964539,12.12822922,0.4810995483,12.56249545
17.290046,4.077969818,12.89179138,1.758992157,13.63532824
17.300022,5.00214798,13.1702124,2.825075226,14.36861264
17.309998,5.588778076,12.62070511,3.174748077,14.16317984
17.319974,5.337151337,11.64772842,2.938389587,13.14491899
17.32995,3.633394318,10.56502991,2.847378845,11.52948297
17.339926,1.968706055,9.763596497,2.426154785,10.25133392
17.349902,0.9997709656,9.198820953,1.566193085,9.38460493
17.359878,0.4872367859,8.700656891,0.8527766418,8.755915601
17.369854,0.1157093811,7.990084534,-0.01152603149,7.990930632
17.37983,-0.113613739,7.436685333,-1.41231308,7.570457388
17.389806,-0.1300794983,7.538174286,-2.414928131,7.916619867
17.399782,-0.2442919922,7.820187836,-1.899549866,8.051292198
17.409758,-0.6550378418,7.52949234,-0.3818559265,7.567571831
17.419734,-1.130898285,7.016509094,0.8542735291,7.158220035
17.42971,-1.583856354,6.472839661,1.138382721,6.760337968
17.439686,-1.914069672,5.793402557,1.023122406,6.186594811
17.449662,-2.053878937,5.246439972,0.7875123596,5.688912619
17.459638,-2.150128784,4.884043579,0.6156697083,5.371776676
17.469614,-1.897753601,4.599036255,0.7461982727,5.030846357
17.47959,-1.002465363,4.585115204,0.8860075378,4.776319461
17.489566,0.08217910767,4.920567627,1.169817352,5.058380355
17.499542,0.6409671021,5.208568726,1.440304871,5.441921087
17.509517,0.9458830261,5.630690918,1.663640442,5.947022316
17.519493,1.096469879,6.249653778,1.87799469,6.617195977
17.529469,1.045126648,6.999893646,2.183808746,7.406741619
17.539445,0.6072871399,7.748936005,2.737207947,8.240577299
17.549421,-0.01212478638,8.565637665,3.51139801,9.257440878
17.559397,-0.3538641357,9.632469177,4.528981934,10.64994646
17.569373,-0.5516029358,10.76276871,6.028563538,12.34848308
17.579349,-0.8119116211,11.8656752,7.889793091,14.27243089
17.589325,-1.175355835,12.72848099,9.297016754,15.80601816
17.599301,-1.676663361,13.19296509,9.666598206,16.44106592
17.609277,-2.08860672,13.31466202,9.176217957,16.30476859
17.619253,-2.281405792,13.11258224,8.47732132,15.78003809
17.629229,-2.097887421,12.7840155,8.069569244,15.26270395
17.639205,-1.339115295,13.01483551,7.700137482,15.18128092
17.649181,-0.5047503662,13.83872223,6.650220795,15.36198042
17.659157,-0.2761756897,14.69583984,3.636238403,15.14153927
17.669133,-1.023122406,14.57159821,-1.125509491,14.65076876
17.679109,-2.186054077,13.23218353,-4.686604156,14.20682132
17.689085,-2.162253571,11.98228271,-6.388115845,13.74985322
17.699061,-1.1665242,11.26677063,-5.630690918,12.64933118
17.709037,-0.1282832336,10.42806473,-3.700305176,11.06585961
17.719013,0.7617658997,9.567504272,-2.2056633,9.847963032
17.728989,1.196012878,8.592282257,-2.199226685,8.949545195
17.738965,1.46141098,8.17659668,-2.682870941,8.728702756
17.748941,1.544637909,8.061486053,-2.665207672,8.629993951
17.758917,1.409768372,7.88754776,-2.311642914,8.339337473
17.768893,1.253343658,7.632178802,-1.241368561,7.833391316
17.778869,1.300046539,7.498656464,0.7217990112,7.644668964
17.788844,1.26486969,7.520211639,2.242636414,7.948766981
17.79882,0.6984475708,8.089627533,1.772613831,8.310960379
17.808796,0.3287164307,9.133556671,-0.3646417236,9.146741253
17.818772,0.3263214111,9.863289185,-2.120789795,10.09399369
17.828748,-0.04550537109,9.966275024,-1.991159363,10.16333726
17.838724,-0.65758255,9.75970459,-0.3899391174,9.789601678
17.8487,-1.160985718,9.60762085,1.599124603,9.80874435
17.858676,-1.451830902,9.617051239,2.538271637,10.05178145
17.868652,-1.549577637,9.80760498,1.737736359,10.08018025
17.878628,-1.563798065,10.03857468,0.1510359192,10.16077053
17.888604,-1.552272034,10.22748184,-1.115330658,10.4045613
17.89858,-1.630409546,10.21326141,-1.476379852,10.44742272
17.908556,-1.842368774,10.13841705,-1.172511749,10.37095014
17.918532,-2.133213959,10.0833316,-0.6608757019,10.32767809
17.928508,-2.454445953,9.947264557,0.1221459961,10.24633089
17.938484,-2.743195496,9.724976807,0.9461824036,10.14867265
17.94846,-2.974015503,9.445058899,1.42279129,10.00391128
17.958436,-2.929408264,9.317823486,1.380279694,9.864504008
17.968412,-2.567311249,9.473200378,0.9472302246,9.860520146
17.978388,-2.214944,9.514664154,0.5279521179,9.78332992
17.988364,-1.94580368,9.424850922,0.2254312134,9.62625504
17.99834,-1.800156555,9.318122864,-0.1287322998,9.491288076
18.008316,-1.661694489,9.102720795,-0.5556445312,9.269816357
18.018292,-1.529669037,8.860823822,-0.8020321655,9.027587815
18.028268,-1.319506073,8.686137085,-0.8225395203,8.824207896
18.038243,-1.05306015,8.567433929,-0.5667214966,8.650493227
18.048219,-0.9198371887,8.352181549,-0.416434021,8.412993188
18.058195,-1.013692017,8.237969055,-0.736917572,8.332751836
18.068171,-1.043031006,8.320148163,-1.190474396,8.469357025
18.078147,-0.9970765686,8.442443848,-1.107097778,8.572904134
18.088123,-1.107097778,8.467591553,-0.9514215088,8.592495277
18.09809933,-1.093027039,8.747210083,-0.807121582,8.852109217
18.10807533,-0.9918374634,9.012458496,-0.596509552,9.086471997
18.11805133,-1.078656921,9.258546753,-0.274379425,9.325206314
18.12802733,-1.304986267,9.519304504,0.02215393066,9.60836293
18.13800333,-1.34210907,9.786798248,0.4616400146,9.889175305
18.14797933,-1.287023621,9.857900391,0.8201445007,9.975332922
18.15795533,-1.239871674,9.724078674,0.7532336426,9.831701214
18.16793133,-1.209634552,9.504036255,0.4327500916,9.590474103
18.17790733,-1.16772171,9.36183197,0.08158035278,9.434729842
18.18788333,-1.168619843,9.317973175,-0.2242337036,9.393645575
18.19785933,-1.311422882,9.346264343,-0.4016148376,9.446363408
18.20783533,-1.607357483,9.39700882,-0.6881190491,9.558288584
18.21781133,-1.983225861,9.526639252,-1.011147308,9.783274458
18.22778733,-2.236648865,9.686656494,-1.012494507,9.99295038
18.23776333,-2.44082428,9.8299086,-0.7698490906,10.15762737
18.24773933,-2.576142883,9.997559967,-0.5352868652,10.33800026
18.25771533,-2.652184753,10.12225067,-0.4001179504,10.47158713
18.26769133,-2.800376587,10.10967682,-0.2188449097,10.49264349
18.27766733,-2.897374878,10.08632538,0.0845741272,10.49456496
18.28764333,-2.937042389,10.04261627,0.3068618774,10.46778505
18.29761833,-2.827170868,10.21400986,0.5281018066,10.6112103
18.30759433,-2.749033356,10.77803696,0.5197192383,11.13523117
18.31757033,-2.79304184,11.54668854,0.09639953613,11.88008383
18.32754633,-2.938239899,12.29992218,-0.2917433167,12.64936574
18.33752233,-3.19315979,12.94837372,-0.6734495544,13.3532837
18.34749833,-3.440894623,13.32334396,-1.241218872,13.81636256
18.35747433,-3.610192566,13.32259552,-1.559906158,13.89094486
18.36745033,-3.714824982,12.96004944,-1.300046539,13.54447958
18.37742633,-3.890409851,12.31339417,-0.4760101318,12.92213412
18.38740233,-4.079167328,11.44025986,0.6680607605,12.16410526
18.39737833,-4.137545929,10.4880899,1.721569977,11.40539869
18.40735433,-3.409010925,10.11222153,1.746567993,10.81336578
18.41733033,-2.028731232,10.10294083,0.9042695618,10.34421902
18.42730633,-1.016236725,9.85326004,0.1230441284,9.906291453
18.43728233,-0.5240602112,9.38877594,-0.8376580811,9.440626241
18.44725833,-0.303868103,8.877738647,-1.718725891,9.047684677
18.45723433,-0.1910028076,8.526269531,-2.380200348,8.854327071
18.46721033,-0.1137634277,8.371192017,-2.494562531,8.735710624
18.47718633,0.04146377563,8.510402527,-1.968855743,8.735276948
18.48716233,0.3614982605,9.072483673,-1.368454285,9.182227841
18.49713833,0.7075785828,10.0515976,-0.6367758179,10.09657195
18.50711433,0.9660910034,11.13504456,0.1207987976,11.17752841
18.51709033,1.30932724,11.9798877,0.4813989258,12.06083712
18.52706633,1.837728424,12.66905457,0.9981243896,12.84050005
18.53704233,2.534828796,13.22933945,1.716779938,13.57895845
18.54701833,3.346291351,13.44534027,2.125430145,14.01757091
18.55699333,3.941603394,12.99836975,1.925446014,13.7186441
18.56696933,3.681594086,12.02584213,1.673669586,12.68763902
18.57694533,2.563718719,11.04792572,1.510808258,11.44167199
18.58692133,1.751058655,10.21924896,1.115779724,10.42804968
18.59689733,1.035097504,9.440418549,0.6791377258,9.521247674
18.60687333,0.6030958557,8.832382965,0.4742138672,8.865641107
18.61684933,0.5361849976,8.48540451,0.08666976929,8.502769884
18.62682533,0.6319857788,8.201744385,-0.3532653809,8.233639135
18.63680133,0.7578739929,7.922275543,-0.853225708,8.00405003
18.64677733,0.6596781921,7.620952148,-1.326242065,7.763569088
18.65675333,0.3616479492,7.352560272,-1.66858017,7.548184654
18.66672933,0.08472381592,7.192692719,-1.30348938,7.31034139
18.67670533,-0.1609153748,7.211852875,-0.4058061218,7.225053235
18.68668133,-0.5191204834,7.141499176,0.4803511047,7.176436006
18.69665733,-0.9144483948,7.092550964,1.330133972,7.273908951
18.70663333,-1.305435333,7.093000031,1.907483368,7.460114184
18.71660933,-1.549727325,7.006779327,2.093546448,7.475262407
18.72658533,-1.753453674,6.753655701,2.06525528,7.276794932
18.73656133,-1.79611496,6.676116943,1.839824066,7.154126011
18.74653733,-1.134341125,6.786287842,1.397643585,7.020957203
18.75651333,-0.2713856506,6.83793045,1.009949799,6.917437503
18.76648933,0.08352630615,6.986421661,0.8692424011,7.040784518
18.77646533,0.1598675537,7.300318909,0.9113049316,7.358715274
18.78644133,0.1809736633,7.754324799,1.333427124,7.870218068
18.79641733,-0.004640350342,8.300988007,2.130968628,8.570148815
18.80639333,-0.6727011108,8.727451172,3.020419006,9.259798147
18.81636933,-1.164129181,9.184899902,3.748055878,9.98826841
18.82634533,-1.317410431,9.918224945,4.279151459,10.8819986
18.83632033,-1.515149231,10.42701691,4.934788055,11.63488255
18.84629633,-1.812131653,10.67220703,5.61407547,12.1941653
18.85627233,-2.016606445,10.93311447,5.948330383,12.60881945
18.86624833,-2.3237677,11.10301117,5.920338593,12.79559152
18.87622433,-2.699486389,10.89748856,6.051914978,12.7541428
18.88620033,-3.069067841,10.60574524,5.827830963,12.48457541
18.89617633,-3.340303802,10.09605515,5.394931183,11.92448076
18.90615233,-3.371439056,9.548942871,4.545148315,11.09987768
18.91612833,-3.169209595,8.96171402,3.567082214,10.15284606
18.92610433,-2.643353119,8.46789093,2.84094223,9.314689757
18.93608033,-1.99385376,8.015232239,2.261497192,8.563513894
18.94605633,-1.415905609,7.680827637,2.067949677,8.079376074
18.95603233,-0.7929011536,8.178542633,1.897005157,8.433023207
18.96600833,-0.1748364258,9.43323349,1.194066925,9.510113442
18.97598433,0.103434906,10.69974976,0.3257226562,10.70520616
18.98596033,0.3263214111,12.14888626,0.4514611816,12.16165039
18.99593633,0.9268725586,13.98287247,1.976489868,14.1522552
19.00591233,1.474583588,15.89589432,4.241429901,16.51797749
19.01588833,1.556463318,17.30835709,4.636159058,17.98598827
19.02586433,1.14077774,17.5828862,1.952090607,17.72765971
19.03584033,0.8352630615,16.52698196,-1.923500061,16.65949128
19.04581633,1.074465637,14.28838715,-4.828509064,15.12041611
19.05579233,1.163380737,11.39610168,-5.483995972,12.70034646
19.06576833,0.892893219,8.949888611,-4.309687958,9.973523687
19.07574433,0.7682025146,7.537874908,-2.16000824,7.878789808
19.08571933,0.9605525208,6.775809631,-0.2350112915,6.847589913
19.09569533,1.225800934,6.095923462,0.9488768005,6.289931475
19.10567096,1.326242065,5.642965393,0.5075944519,5.818902695
19.11564696,1.193617859,5.692362671,-1.16068634,5.930843882
19.12562296,0.7463479614,5.889203339,-2.478695526,6.433015059
19.13559896,0.3282673645,6.33018631,-2.788850555,6.925078021
19.14557496,0.04685256958,7.11410614,-2.841391296,7.660692256
19.15555096,-0.1459465027,8.175997925,-2.744243317,8.625492092
19.16552696,-0.3056643677,9.40284668,-2.476599884,9.728335077
19.17550296,-0.4132905579,10.41728714,-1.541644135,10.53884942
19.18547896,-0.5367837524,11.21378082,-0.4155358887,11.23430849
19.19545496,-0.7246430969,11.84861069,1.293011169,11.94096147
19.20543096,-1.251846771,12.239897,4.273313599,13.02472296
19.21540696,-1.86392395,12.1364621,4.8559021,13.20407929
19.22538296,-2.2839505,11.47438889,3.066972198,12.09480668
19.23535896,-2.652334442,10.59242294,1.032852173,10.96818515
19.24533496,-2.83166153,10.0011525,-0.05269042969,10.39442805
19.25531096,-2.595602417,9.553583221,-0.3047662354,9.904594224
19.26528696,-1.926194458,9.208999786,-0.143102417,9.409377262
19.27526296,-1.205742645,9.071884918,0.09505233765,9.152155279
19.28523896,-0.8991801453,8.87160141,0.2716850281,8.921191023
19.29521496,-0.9496252441,8.852291565,0.06900650024,8.903348581
19.30519096,-1.110839996,8.819509735,-0.3426374817,8.895792146
19.31516696,-1.260678406,8.760083313,-0.623303833,8.872253229
19.32514296,-1.3947995,8.691825256,-0.6991960144,8.830751214
19.33511896,-1.470691681,8.711584167,-0.7464976501,8.866334726
19.34509396,-1.281634827,8.771459656,-0.6162684631,8.885993424
19.35506996,-1.307680664,8.730894012,-0.2510279846,8.831848845
19.36504596,-1.715732117,8.818162537,-0.1781295776,8.985291168
19.37502196,-2.168989563,9.169481964,-0.2969824219,9.427200739
19.38499796,-2.326013031,9.464967499,-0.3186872864,9.751795115
19.39497396,-2.430645447,9.510622559,-0.232616272,9.819067627
19.40494996,-2.590513,9.427695007,0.008681945801,9.777129749
19.41492596,-2.689606934,9.381890259,0.296383667,9.764307122
19.42490196,-2.70053421,9.36302948,0.5066963196,9.757865915
19.43487796,-2.745291138,9.430239716,0.6899153137,9.845914262
19.44485396,-2.807561646,9.411528625,0.7442523193,9.849527145
19.45482996,-2.849923553,9.355395355,0.6515950012,9.801533684
19.46480596,-2.571951599,9.446406097,0.5234614563,9.804261068
19.47478196,-2.171234894,9.566306763,0.3679348755,9.816509671
19.48475796,-2.054777069,9.554181976,0.2085163879,9.774864762
19.49473396,-2.091301117,9.438622284,-0.02365081787,9.667558655
19.50470996,-2.150727539,9.321715393,-0.2865042114,9.570898154
19.51468596,-2.221380615,9.279652863,-0.5501060486,9.557672612
19.52466196,-2.301913147,9.217831421,-0.6785389709,9.525105531
19.53463796,-2.339634705,9.093290405,-0.5661227417,9.406503915
19.54461396,-2.456691284,8.982670441,-0.5057981873,9.326281795
19.55458996,-2.521057434,9.043743439,-0.6075865173,9.40819788
19.56456596,-2.500699768,9.15002243,-0.6111790466,9.505259051
19.57454196,-2.4325914,9.305998077,-0.4346960449,9.628502572
19.58451796,-2.345173187,9.420809326,-0.04894821167,9.708443828
19.59449296,-2.219584351,9.596394196,0.408949585,9.858223776
19.60446896,-2.160457306,9.875264282,0.7584727478,10.13724328
19.61444496,-2.0570224,10.22523651,1.014739838,10.4793368
19.62442096,-2.010020142,10.83656525,1.229842529,11.08980793
19.63439696,-2.054777069,11.73529633,1.516795807,12.0099941
19.64437296,-2.349214783,12.79958313,1.8592836,13.14553437
19.65434896,-2.828218689,13.87419846,1.385069733,14.2271087
19.66432496,-3.407064972,14.52444626,-0.07873626709,14.91890848
19.67430096,-3.971092072,14.59240494,-1.892514496,15.24104541
19.68427696,-4.202061768,14.43882431,-2.994971924,15.33319365
19.69425296,-4.308041382,13.83153717,-2.175276489,14.64931633
19.70422896,-4.459526367,13.04103104,-0.08038284302,13.78268215
19.71420496,-4.763095093,12.12074478,1.682201843,13.13123497
19.72418096,-4.74124054,11.07906097,2.036515045,12.22179804
19.73415696,-3.334915009,10.58598633,1.251098328,11.16915447
19.74413296,-1.462309113,10.79240707,0.7114704895,10.91423789
19.75410896,-0.6521937561,10.69825287,0.3131488037,10.72268778
19.76408496,-0.3876937866,10.21026764,-0.3061134338,10.22220999
19.77406096,-0.2836601257,9.698930969,-1.165027313,9.772768986
19.78403696,-0.1432521057,9.270970917,-1.811682587,9.447413228
19.79401296,0.09460327148,9.580377502,-1.559457092,9.706929962
19.80398896,0.4387376404,10.16446289,-1.102008362,10.23343632
19.81396496,0.8732839966,10.85812042,-0.4894821167,10.90417337
19.82394096,1.282233582,11.46510818,0.1881587219,11.53812083
19.83391596,1.842817841,11.99141373,1.039438477,12.1766339
19.84389196,2.75666748,12.26699066,1.712289276,12.68897987
19.85386796,3.8565802,12.19903198,2.081421661,12.9623265
19.86384396,4.831502838,11.70850204,1.964365082,12.81761171
19.87381996,5.281317444,10.92248657,1.601968689,12.23761948
19.88379596,4.586163025,9.995464325,1.093326416,11.05158636
19.89377196,2.841540985,9.203461304,0.6396199036,9.653350131
19.90374796,1.270108795,8.474477234,0.1142124939,8.569888286
19.91372396,0.2478845215,7.987988892,-0.1326242065,7.992934533
19.92369996,-0.3125500488,7.516170044,-0.4882846069,7.538495972
19.93367596,-0.6439608765,7.104226685,-1.032253418,7.207653537
19.94365196,-0.780327301,6.958579559,-1.536704407,7.168835374
19.95362796,-0.8228388977,7.057523804,-1.59134079,7.281350946
19.96360396,-0.9289682007,7.196734314,-0.7661068726,7.296772331
19.97357996,-1.257684631,6.942413177,0.5794450378,7.079168589
19.98355596,-1.616638184,6.675817566,1.96226944,7.143567774
19.99353196,-1.807191925,6.640341339,2.458936615,7.307971335
20.00350796,-1.895957336,6.664441223,2.411036224,7.336383763
20.01348396,-1.884281616,6.799759827,2.230811005,7.400254634
20.02345996,-1.78668457,6.935377808,1.990710297,7.433346122
20.03343596,-1.650168457,7.016509094,1.755699005,7.418688213
20.04341196,-1.000519409,7.084617462,1.349892883,7.281143761
20.05338796,0.150586853,7.08716217,1.106199646,7.174553762
20.06336396,0.6652166748,7.174879761,1.254840546,7.31409855
20.07333896,0.9017248535,7.392676849,1.654958496,7.629132738
20.08331496,1.001716919,7.575446777,2.095342712,7.92346463
20.09329096,0.9616003418,7.860304413,2.397713928,8.273940582
20.10326662,0.9882449341,8.20578598,2.983894958,8.787216893
20.11324262,0.7182064819,8.608748016,3.826492767,9.448196117
20.12321862,-0.05658233643,8.970246277,4.808301086,10.17783273
20.13319462,-0.732127533,9.612560577,5.417085114,11.05812564
20.14317062,-1.194815369,10.35531601,5.729485474,11.89483742
20.15314662,-1.650018768,10.86829926,6.090983734,12.56752058
20.16312262,-2.045196991,11.43666733,6.356980591,13.24354154
20.17309862,-2.513722687,11.74367889,6.332880707,13.57711949
20.18307462,-3.121009827,11.78274765,5.882766724,13.53442976
20.19305062,-3.619772644,11.58066788,5.296436005,13.23883895
20.20302662,-4.073179779,10.83252365,5.056185608,12.6293062
20.21300262,-4.261637878,9.917775879,4.925806732,11.86538696
20.22297862,-3.597019958,9.113498383,4.512366486,10.78683719
20.23295462,-2.279609528,8.468489685,3.729644165,9.5300673
20.24293062,-1.367406464,7.867788849,3.034489746,8.542834999
20.25290662,-0.7098239136,7.63247818,2.318079529,8.008249862
20.26288262,0.1758842468,8.354127502,0.9599537659,8.410938879
20.27285862,0.4638853455,9.207951965,-0.7209008789,9.247770925
20.28283462,0.5249583435,10.08033783,-1.214873657,10.16684366
20.29280962,1.016236725,11.71209457,0.3972738647,11.76281101
20.30278562,1.974992981,13.71492966,3.381917267,14.26314331
20.31276162,2.429897003,15.47841248,5.251080322,16.524512
20.32273762,1.862576752,16.57922333,4.439019012,17.26397197
20.33271362,0.4933740234,16.3247525,1.243314514,16.37946254
20.34268962,-0.1802252197,14.94447281,-2.954705658,15.23482964
20.35266562,0.5128335571,13.25269089,-5.88665863,14.51032611
20.36264162,0.9354048157,11.33727402,-5.916746063,12.82250554
20.37261762,0.5763015747,9.593101044,-3.83083374,10.345772
20.38259362,0.3598516846,8.637787628,-1.689386902,8.808796538
20.39256962,0.443228302,8.094866638,-0.3616479492,8.11505431
20.40254562,0.6301895142,7.5154216,0.3814068604,7.551435085
20.41252162,0.6783892822,6.915618896,0.2951861572,6.955079554
20.42249762,0.4617897034,6.597829742,-0.7541317749,6.656825202
20.43247362,0.1606159973,6.376290436,-1.957180023,6.671838642
20.44244962,0.004939727783,6.60276947,-2.761607208,7.157028954
20.45242563,-0.0005987548828,7.223229218,-2.911894684,7.788078796
20.46240163,-0.2185455322,7.8219841,-2.671195221,8.268402586
20.47237763,-0.4656816101,8.71951767,-1.984872437,8.954695212
20.48235363,-0.7005432129,9.998458099,-0.2423460388,10.0258993
20.49232963,-1.18059494,11.19342316,3.836821289,11.89149797
20.50230563,-1.734443207,11.89157135,5.810018005,13.34818608
20.51228163,-2.077529755,11.81058975,3.705394592,12.55133894
20.52225763,-2.326611786,11.25180176,0.8313711548,11.51986733
20.53223363,-2.609224091,10.65648972,-0.7625143433,10.99773847
20.54220863,-2.779719543,10.05384293,-0.9406439209,10.47336667
20.55218463,-2.65263382,9.479038239,-0.429307251,9.852559912
20.56216063,-2.19279007,9.02368515,0.07619155884,9.286604715
20.57213663,-1.731000366,8.915909271,0.3653901672,9.08973654
20.58211263,-1.412163391,8.971593475,0.2896476746,9.086671046
20.59208863,-1.228195953,9.039552155,0.324225769,9.128367368
20.60206463,-1.300046539,9.101972351,-0.2682421875,9.198259376
20.61204063,-1.404379578,8.925639038,-0.6143225098,9.056307547
20.62201663,-1.442250824,8.651409302,-0.3758683777,8.778852282
20.63199263,-1.344953156,8.558153229,-0.1372645569,8.664278806
20.64196863,-1.24032074,8.631351013,0.246537323,8.723496805
20.65194463,-1.356030121,8.642128601,0.3941304016,8.756742729
20.66192063,-1.522483978,8.748108215,0.3824546814,8.887835867
20.67189663,-1.7995578,8.736881561,0.4429289246,8.931276153
20.68187263,-2.208507385,8.784781952,0.286204834,9.062660317
20.69184863,-2.6210495,8.988508301,0.0303868103,9.362911156
20.70182463,-2.69349884,9.137897644,-0.08876541138,9.527013627
20.71180062,-2.629432068,9.107810211,0.009729766846,9.479779244
20.72177662,-2.402503967,9.06694519,0.119002533,9.380601367
20.73175262,-2.099983063,9.082662506,0.1475930786,9.32343664
20.74172862,-1.914818115,9.054970093,0.209564209,9.257587642
20.75170462,-1.762285309,9.083710327,0.2703378296,9.25702573
20.76168062,-1.632205811,9.119186554,0.2240840149,9.266815681
20.77165662,-1.491049347,9.15945282,0.2276765442,9.282814267
20.78163262,-1.373244324,9.21798111,0.2073188782,9.322014634
20.79160862,-1.260379028,9.297016754,0.2107617188,9.384428396
20.80158462,-1.249002686,9.295968933,0.1901046753,9.381427711
20.81156062,-1.339863739,9.287885742,0.1824705505,9.385805874
20.82153562,-1.478176117,9.258397064,0.1017883301,9.376208279
20.83151162,-1.69657196,9.176667023,-0.01077758789,9.332185715
20.84148762,-1.962568817,9.123228149,-0.06975494385,9.332193417
20.85146362,-2.17048645,9.107660522,-0.3290158081,9.368497373
20.86143962,-2.368674316,9.142388306,-0.673150177,9.46821066
20.87141562,-2.622845764,9.30330368,-1.048868866,9.722700508
20.88139162,-2.67359024,9.412277069,-1.11862381,9.848368577
20.89136762,-2.788850555,9.552685089,-0.8830137634,9.990555197
20.90134362,-2.83974472,9.628876648,-0.5641767883,10.05473575
20.91131962,-2.823728027,9.963430939,-0.2968327332,10.36009197
20.92129562,-2.77777359,10.72160431,-0.1604663086,11.0767583
20.93127162,-2.754122772,11.78903458,-0.05763015747,12.10660356
20.94124762,-2.894979858,12.83790344,0.2402503967,13.16246153
20.95122362,-3.218457184,13.61059662,0.4956193542,13.9947292
20.96119962,-3.625909882,14.01819901,0.1999841309,14.4809226
20.97117562,-4.038601685,13.94694717,-0.6182144165,14.53305983
20.98115162,-4.377197571,13.54802673,-1.194815369,14.28763349
20.99112762,-4.427043915,13.13488586,-1.613794098,13.95450737
21.00110362,-4.316873016,12.63986526,-1.685944061,13.46268896
21.01107962,-3.928580475,11.91447372,-1.147962799,12.59786677
21.02105562,-3.211421814,11.18399277,-0.2028282166,11.6377001
21.03103162,-2.133663025,10.65753754,0.8839118958,10.90490369
21.04100762,-1.149160309,10.33570679,1.330732727,10.48419066
21.05098362,-0.5881269836,9.944420471,1.168320465,10.03007301
21.06095962,-0.3308120728,9.521998901,0.6429130554,9.549410291
21.07093563,-0.1695973206,9.044342194,-0.1306782532,9.046876023
21.08091163,-0.02694396973,8.682993622,-0.8747808838,8.726989504
21.09088763,0.1576222229,8.522227936,-1.316212921,8.624710442
21.10086712,0.516126709,8.71128479,-1.469344482,8.849397871
21.11084312,1.000220032,9.351952515,-1.619033203,9.543622188
21.12081812,1.495989075,10.22912842,-1.871408386,10.50596121
21.13079412,1.943857727,10.85542603,-1.82889679,11.1787173
21.14077012,2.45489502,11.38188126,-1.521286469,11.74257395
21.15074612,2.981050873,11.79053146,-0.6375242615,12.17824838
21.16072212,3.593726807,11.94860275,0.8425978088,12.50575672
21.17069812,4.317920837,11.93288544,1.939367065,12.83741952
21.18067412,5.057383118,11.6427887,2.614313507,12.96018085
21.19065012,4.933291168,10.95107712,2.368674316,12.24230656
21.20062612,3.16397049,9.971364441,1.808239746,10.61642826
21.21060212,1.615740051,9.296717377,0.9828561401,9.487126862
21.22057812,0.7676037598,8.981472931,0.3067121887,9.019431463
21.23055412,0.2697390747,8.71712265,-0.2372566223,8.724521601
21.24053012,0.03712280273,8.317753143,-0.450712738,8.330038261
21.25050612,-0.02664459229,8.063132629,-0.7108717346,8.094452196
21.26048212,-0.06676116943,7.828420715,-0.8282276917,7.872394112
21.27045812,-0.1028361511,7.546257477,-0.7526348877,7.584394271
21.28043412,-0.1317260742,7.337741089,-0.6732998657,7.369744144
21.29041012,-0.1953437805,7.259753265,-0.2490820312,7.266651122
21.30038612,-0.3785627747,7.086862793,0.417481842,7.109235199
21.31036212,-0.5902226257,7.059469757,1.029109955,7.158459562
21.32033812,-0.7587721252,7.156018982,1.210382996,7.297216579
21.33031412,-0.927171936,7.315437469,1.465901642,7.518253839
21.34029012,-1.054407349,7.397017822,1.589095459,7.63890515
21.35026612,-1.23912323,7.387437744,1.530567169,7.6454103
21.36024212,-1.34330658,7.416177979,1.498982849,7.684472523
21.37021812,-1.346150665,7.25107132,1.468146973,7.519681671
21.38019412,-0.9096583557,7.34223175,1.292711792,7.51045599
21.39017012,0.05403762817,7.640261993,0.7887098694,7.681053746
21.40014613,0.5870791626,7.768994293,0.7333250427,7.825579844
21.41012213,0.7548802185,7.909552002,1.16891922,8.031016695
21.42009813,0.7735913086,8.196355591,1.733994141,8.413407405
21.43007413,0.8213420105,8.612041168,2.405946808,8.979445185
21.44005013,0.7285350037,9.021589508,3.359913025,9.654473369
21.45002613,0.3209326172,9.307045898,4.444557495,10.31882709
21.46000213,-0.07694000244,9.611213379,5.493126984,11.0704917
21.46997813,-0.3861968994,9.991722107,6.368656311,11.85510194
21.47995413,-0.7491920471,10.39198975,6.930138702,12.51325545
21.48992913,-1.110540619,10.71441925,7.152127075,12.93000395
21.49990513,-1.533111877,10.89629105,6.898105316,12.98704922
21.50988113,-1.938169556,10.95631622,5.801186371,12.54795321
21.51985713,-2.339784393,10.79629898,4.720583496,12.01326647
21.52983313,-2.6104216,10.54751633,4.004622345,11.58021596
21.53980913,-2.747087402,10.13198044,3.702251129,11.13149497
21.54978513,-2.692600708,9.634714508,3.655847626,10.65096447
21.55976113,-2.090702362,9.226812744,3.703598328,10.15981055
21.56973713,-1.215173035,9.060059509,3.658542023,9.846128861
21.57971313,-0.4079017639,9.505533142,3.471580811,10.12785355
21.58968913,0.132923584,10.38749908,3.101250916,10.84138198
21.59966513,0.3438349915,11.32724487,2.552492065,11.61636409
21.60964113,0.264200592,12.15711914,2.317630463,12.37888358
21.61961713,0.3176394653,13.16108139,2.161804504,13.34122771
21.62959313,0.2342628479,13.93018204,1.40647522,14.0029648
21.63956913,0.2959346008,14.56186844,1.326242065,14.62513274
21.64954513,0.1853146362,14.77083389,1.421444092,14.84022839
21.65952112,-0.6137237549,13.45477066,-0.7370672607,13.48891317
21.66949712,-0.4794529724,11.59728333,-3.873195648,12.23635976
21.67947312,0.04805007935,10.01507355,-5.094056854,11.23625481
21.68944912,0.2204914856,8.894653473,-4.189936981,9.834584323
21.69942512,0.2192939758,8.255632324,-2.654280396,8.674604276
21.70940112,0.4436773682,7.923622742,-1.377435608,8.054686575
21.71937712,0.7295828247,7.767198029,-0.596509552,7.824160016
21.72935312,1.01563797,7.386689301,-0.06541397095,7.456472242
21.73932912,1.190624084,7.176975403,0.1520837402,7.27665384
21.74930512,1.035097504,7.256460114,-0.6421646118,7.357989916
21.75928112,0.6159690857,7.533683624,-1.850152588,7.781958074
21.76925712,0.2405497742,7.968080292,-2.868035889,8.471941784
21.77923312,-0.02469863892,8.69960907,-2.996768188,9.201327489
21.78920912,-0.2652484131,9.505682831,-2.366279297,9.799369394
21.79918512,-0.4308041382,10.23212219,-1.37249588,10.33274706
21.80916112,-0.578846283,10.74794952,0.1927990723,10.76525213
21.81913712,-0.841999054,11.03041214,1.692230988,11.19118403
21.82911312,-1.169368286,11.13025452,2.093097382,11.38556298
21.83908912,-1.483564911,11.05121887,1.716031494,11.28162965
21.84906512,-1.857936401,10.76860657,1.085991669,10.98153873
21.85904112,-2.184257813,10.32777328,0.800684967,10.58654711
21.86901712,-2.285896454,9.989626465,0.9713301086,10.29375741
21.87899312,-2.319726105,9.534722443,0.9392967224,9.85770458
21.88896912,-2.238445129,9.12547348,0.7291337585,9.424252696
21.89894512,-1.899549866,8.928333435,0.3579057312,9.135180575
21.90892112,-1.610500946,8.963061218,-0.07484436035,9.106908442
21.91889612,-1.471739502,8.828790436,-0.303868103,8.955774313
21.92887212,-1.399739227,8.46669342,-0.4049079895,8.591165105
21.93884812,-1.32220047,8.245303802,-0.6098318481,8.372881449
21.94882412,-1.218166809,8.145461426,-0.7688012695,8.271851522
21.95880012,-0.9509724426,8.327782288,-0.7991880798,8.419917339
21.96877612,-0.7824229431,8.646619263,-0.706381073,8.710636289
21.97875212,-0.7744894409,8.789122925,-0.6099815369,8.844240677
21.98872812,-0.8643026733,9.065448303,-0.3817062378,9.114552743
21.99870412,-1.387165375,9.419013062,-0.288899231,9.524993312
22.00868012,-1.854343872,9.646390228,-0.4948709106,9.835463022
22.01865613,-1.976639557,9.856403503,-0.6944059753,10.07660626
22.02863213,-1.987716522,9.855355682,-0.5321434021,10.06788107
22.03860813,-1.991159363,9.790989532,-0.5252577209,10.00520301
22.04858413,-1.989363098,9.761051788,-0.4222718811,9.970657506
22.05856013,-2.014660492,9.767338715,-0.09909393311,9.973443842
22.06853613,-2.026934967,9.733808441,0.2628533936,9.946083854
22.07851213,-1.95523407,9.673483887,0.53004776,9.883328458
22.08848813,-1.645977173,9.636660461,0.5023553467,9.789117764
22.09846413,-1.291963348,9.589358826,0.3432362366,9.682085679
22.10843737,-1.150507507,9.470805359,0.3228785706,9.545892952
22.11841337,-1.080902252,9.334139557,0.4251159668,9.406127499
22.12838937,-1.021326141,9.21214325,0.292641449,9.273204913
22.13836537,-1.006656647,9.119485931,0.01541793823,9.174890679
22.14834137,-1.103654938,8.971144409,-0.3701802063,9.046353941
22.15831737,-1.180894318,8.747060394,-0.7873626709,8.861462459
22.16829337,-1.370998993,8.554560699,-1.021625519,8.72375296
22.17826937,-1.419947205,8.555458832,-1.085692291,8.740186133
22.18824538,-1.34330658,8.704399109,-0.9768685913,8.861450708
22.19822138,-1.329984283,9.02488266,-0.7920030212,9.156671557
22.20819738,-1.602417755,9.436826019,-0.5186714172,9.585950554
22.21817338,-1.906285858,9.775122528,-0.3414399719,9.965115527
22.22814938,-2.020198975,10.05114853,-0.3838018799,10.25934182
22.23812538,-1.99385376,10.18796402,-0.5511538696,10.39585659
22.24810138,-1.959724731,10.19544846,-0.655486908,10.40275701
22.25807738,-1.888921967,10.11895752,-0.5539979553,10.30864885
22.26805338,-1.886826324,10.09859985,-0.2802172852,10.27717638
22.27802938,-1.928739166,10.28301636,-0.03876937866,10.46240714
22.28800538,-1.95523407,10.74286011,-0.03712280273,10.91940299
22.29798138,-2.153721313,11.43097916,-0.1423539734,11.63297316
22.30795738,-2.467319183,12.06416245,-0.03008743286,12.31391833
22.31793338,-2.806214447,12.4588916,0.2050735474,12.77266122
22.32790938,-3.151845703,12.52415588,0.07798782349,12.91490201
22.33788438,-3.313210144,12.37731125,-0.3872447205,12.81893731
22.34786038,-3.425776062,12.11071564,-0.8110134888,12.61202275
22.35783638,-3.455863495,11.92001221,-0.9380992126,12.44627308
22.36781238,-3.508254547,11.68964127,-0.5590873718,12.21753419
22.37778838,-3.618575134,11.27859604,0.1423539734,11.84571987
22.38776438,-3.802692261,10.75199112,0.9177415466,11.44150475
22.39774038,-3.742068329,10.23421783,1.343156891,10.97936066
22.40771638,-2.948269043,9.905651093,0.9142987061,10.37545932
22.41769238,-1.477727051,9.813442841,0.6812333679,9.94743266
22.42766838,-0.427660675,9.615853729,0.5671705627,9.642054711
22.43764438,-0.1080752563,9.146130524,0.1574725342,9.148124475
22.44762037,0.193996582,8.95587616,-0.4447251892,8.969009586
22.45759637,0.3824546814,8.714428253,-1.270258484,8.814822062
22.46757237,0.5575904846,8.553961945,-1.698517914,8.73877195
22.47754837,0.770148468,8.812324677,-1.67202301,9.002547185
22.48752437,1.083297272,9.557624817,-1.181493073,9.691111959
22.49750037,1.319655762,10.30487091,-0.3420387268,10.3946547
22.50747637,1.532363434,11.06109833,0.3098556519,11.17103596
22.51745237,1.755549316,11.96432007,0.6240522766,12.10852383
22.52742837,2.119292908,12.96274384,1.226549377,13.19198823
22.53740437,2.830613708,13.79186966,2.190694427,14.24876081
22.54738037,3.763324127,14.13001648,2.684816895,14.86701772
22.55735637,4.407285004,13.60805191,2.330653381,14.49259063
22.56733237,3.455115051,12.15262848,1.676962738,12.74505406
22.57730837,1.92364975,10.86126389,1.074914703,11.08255039
22.58728437,1.025218048,10.01522324,0.4170327759,10.07619397
22.59726037,0.1739382935,9.21094574,-0.1202000427,9.213372021
22.60723637,-0.2665956116,8.642128601,-0.6075865173,8.667561442
22.61721237,-0.4102967834,8.141868896,-0.8469387817,8.196076981
22.62718837,-0.5532495117,7.451354828,-1.135838013,7.557704796
22.63716437,-0.3796105957,7.09779007,-1.206191711,7.209551062
22.64714037,-0.1407073975,7.22532486,-1.037342834,7.30076695
22.65711637,-0.4058061218,7.100933533,-0.6102809143,7.138653825
22.66709237,-0.8818162537,6.899452515,0.5963598633,6.981095186
22.67706837,-1.278191986,6.668782196,1.762734375,7.015245057
22.68704437,-1.629062347,6.509064331,2.240840149,7.074116706
22.69702037,-2.030377808,6.33018631,1.93532547,6.923812348
22.70699637,-2.136656799,6.425238647,1.826202393,7.013131193
22.71697237,-2.055226135,6.691235504,1.429377594,7.144207958
22.72694837,-1.312770081,6.861730957,0.9719288635,7.05346459
22.73692437,-0.1398092651,6.829697571,0.9916877747,6.902735703
22.74690038,0.3996688843,6.82041687,1.224154358,6.940920356
22.75687638,0.697250061,6.881340179,1.557960205,7.08986885
22.76685238,0.7403604126,7.015610962,1.79611496,7.279626341
22.77682838,0.6593788147,7.310497742,1.878294067,7.576684384
22.78680438,0.6156697083,7.735613708,2.036515045,8.022852496
22.79677937,0.490380249,8.218509521,2.586770782,8.62993364
22.80675538,0.0940045166,8.691226501,3.454665985,9.353126323
22.81673138,-0.4728666687,9.020841064,4.428989868,10.06057293
22.82670738,-0.9354048157,9.531578979,5.255570984,10.92460555
22.83668338,-1.391805725,10.12000534,5.782325592,11.73826736
22.84665938,-2.011517029,10.36938675,6.092480621,12.1937977
22.85663538,-2.457739105,10.64331711,6.16163681,12.54138943
22.86661138,-2.804268494,10.83910995,6.008954315,12.70660294
22.87658738,-3.190166016,10.86575455,5.741460571,12.69669841
22.88656338,-3.630849609,10.56817337,5.432203674,12.42490217
22.89653938,-3.977828064,10.05833359,5.022355957,11.92548741
22.90651538,-4.012406158,9.357041931,4.623285828,11.18161029
22.91649138,-3.473377075,8.842112732,4.330943756,10.44051626
22.92646738,-2.465223541,8.734486542,4.411326599,10.09100513
22.93644338,-1.953288116,8.876541138,4.395459595,10.0959587
22.94641938,-1.443598022,9.59938797,3.174149323,10.21310181
22.95639538,-0.5715115356,10.7561824,1.323248291,10.85233023
22.96637138,-0.1207987976,11.60776154,-0.3656895447,11.61414866
22.97634738,0.1258882141,12.09454926,-1.148262177,12.14958746
22.98632338,0.159717865,12.46457977,-0.4225712585,12.47276333
22.99629938,-0.0217048645,12.66665955,0.1196012878,12.66724278
23.00627537,-0.06137237549,12.73342072,-0.698896637,12.75273407
23.01625137,0.193996582,13.10285248,-2.218985596,13.29083424
23.02622737,0.5535488892,13.11078598,-2.785557404,13.4148595
23.03620337,0.6782395935,12.59570709,-2.899620209,12.94293798
23.04617937,0.7400610352,11.41750717,-2.645748138,11.74338723
23.05615537,0.8753796387,10.2957399,-1.783391418,10.48565852
23.06613137,1.00396225,9.455387421,-0.6786886597,9.532728349
23.07610737,1.030457153,8.765172729,0.2754272461,8.829833243
23.08608337,0.8051756287,8.242160339,0.7424560547,8.314610986
23.09605937,0.5460644531,7.945626984,0.7024891663,7.995290212
23.10603833,0.2007325745,7.796986084,0.1526824951,7.80106387
23.11601433,-0.08846603394,7.647297363,-0.5165757751,7.6652354
23.12599033,-0.1983375549,7.663912811,-0.9119036865,7.720522372
23.13596633,-0.06541397095,7.850874023,-0.7671546936,7.888537776
23.14594233,0.1219963074,7.947572937,-0.1535806274,7.949992811
23.15591833,0.2179467773,8.111931152,0.6652166748,8.142078423
23.16589433,-0.2053729248,8.563092957,1.186582489,8.64735318
23.17587033,-0.8241860962,9.177565155,0.7729925537,9.246864462
23.18584633,-0.972228241,9.704170074,-0.2439926147,9.755802221
23.19582233,-1.020877075,10.15084122,-0.7575746155,10.2301362
23.20579833,-1.195264435,10.38705002,-0.9791139221,10.5013394
23.21577433,-1.483415222,10.44108765,-0.975970459,10.59100327
23.22575033,-1.745220795,10.40067169,-0.690813446,10.56867969
23.23572633,-1.975891113,10.32058823,-0.08217910767,10.50835099
23.24570233,-2.250420227,10.11805939,0.5279521179,10.37874031
23.25567833,-2.423161011,9.925709381,0.8384065247,10.25155313
23.26565433,-2.456691284,9.798923035,0.8416996765,10.13719306
23.27562933,-2.180066528,9.801168365,0.7689509583,10.07009816
23.28560533,-1.810185699,9.837842102,0.7306306458,10.0296426
23.29558133,-1.668879547,9.754764862,0.6197113037,9.915878103
23.30555733,-1.721569977,9.619895325,0.4108955383,9.78136107
23.31553333,-1.876647491,9.412875824,0.2065704346,9.600349391
23.32550933,-1.917213135,9.222022705,0.1520837402,9.420431967
23.33548533,-1.878892822,9.062753906,0.2417472839,9.258627779
23.34546133,-1.855990448,8.822952576,0.2118095398,9.01853957
23.35543733,-1.619482269,8.712332611,0.09011260986,8.86203039
23.36541333,-1.299447784,8.839418335,-0.08143066406,8.934792219
23.37538933,-1.087937622,8.901688843,-0.2306703186,8.970890776
23.38536533,-0.9894424438,8.9500383,-0.2357597351,9.007650335
23.39534133,-0.94543396,8.849297791,-0.2052232361,8.902024114
23.40531733,-1.062640228,8.848998413,-0.200433197,8.914827572
23.41529333,-1.074465637,8.991352386,-0.1678010559,9.056878675
23.42526933,-1.075962524,9.154662781,-0.09879455566,9.218205159
23.43524533,-1.065484314,9.318721619,-0.1143621826,9.380133695
23.44522133,-1.393452301,9.382189636,-0.1640588379,9.486522386
23.45519733,-1.664837952,9.483828278,-0.1821711731,9.630569585
23.46517333,-1.829046478,9.580976257,-0.1402583313,9.75500843
23.47514933,-1.879042511,9.664652252,0.002993774414,9.845624047
23.48512533,-1.946851501,9.712253265,0.1815724182,9.907121822
23.49510133,-2.028581543,9.694440308,0.2868035889,9.908560554
23.50507733,-2.039957886,9.649084625,0.2829116821,9.866422923
23.51505333,-2.016905823,9.561666412,0.1550775146,9.773301526
23.52502933,-1.900447998,9.495803375,-0.007634124756,9.684112898
23.53500533,-1.799408112,9.480385437,-0.2128573608,9.651988699
23.54498133,-1.765877838,9.401948547,-0.3972738647,9.574590725
23.55495733,-1.726509705,9.404193878,-0.4938230896,9.57410881
23.56493333,-1.757345581,9.453441467,-0.4186793518,9.624505778
23.57490933,-1.801503754,9.453890533,-0.2914439392,9.628416358
23.58488533,-1.848955078,9.446705475,-0.2267784119,9.628619198
23.59486133,-1.890269165,9.494905243,-0.266894989,9.684914869
23.60483733,-1.907333679,9.51047287,-0.3848497009,9.707477801
23.61481333,-1.894460449,9.487121429,-0.4559518433,9.685161098
23.62478933,-1.902244263,9.502838745,-0.3957769775,9.699438998
23.63476533,-1.921404419,9.633067932,-0.2728825378,9.82660967
23.64474133,-1.947749634,10.01642075,-0.09804611206,10.20451009
23.65471733,-2.0079245,10.65514252,-0.0209564209,10.84270548
23.66469333,-2.119741974,11.32440079,0.04864883423,11.52118596
23.67466933,-2.239642639,11.94201645,0.365539856,12.15571369
23.68464533,-2.451601868,12.36563553,0.6087840271,12.62101073
23.69462133,-2.752775574,12.53672974,0.710123291,12.85502396
23.70459733,-3.14989975,12.51352798,0.4655319214,12.91227985
23.71457333,-3.351979523,12.42206818,0.1947450256,12.86784637
23.72454933,-3.413202209,12.40769806,-0.007933502197,12.86860456
23.73452533,-3.508404236,12.31010101,-0.2198927307,12.80218107
23.74450133,-3.532653809,11.91836563,-0.3385958862,12.43550278
23.75447733,-3.216960297,11.30673752,-0.01107696533,11.75547828
23.76445333,-2.321222992,10.95227463,0.5764512634,11.21038321
23.77442933,-1.372346191,10.6912175,0.8804690552,10.81483663
