Time (s),Acceleration x (m/s^2),Acceleration y (m/s^2),Acceleration z (m/s^2),Absolute acceleration (m/s^2)
1.807831,11.495495,-4.256847839,2.572550354,12.52538119
1.817806,11.24282043,-4.300706635,2.576442261,12.30996115
1.827782,11.29955246,-4.275558929,2.549947357,12.34757148
1.837758,11.52438492,-4.052672424,2.383194122,12.44649411
1.847734,11.6215329,-3.97827713,2.099533997,12.46173177
1.85771,11.14686996,-3.99698822,1.625769196,11.95289715
1.867685,10.72100555,-3.757336578,0.74065979,11.38446816
1.877661,10.53404434,-3.617527313,0.1315763855,11.13866717
1.887637,10.57356216,-3.604055328,0.1146615601,11.17150746
1.897613,10.51129166,-3.751947784,0.1691482544,11.16212236
1.907589,10.18003052,-3.96420639,0.2457888794,10.9274135
1.917564,9.767338715,-4.326602783,0.3908372498,10.68986206
1.92754,9.429191895,-4.676575012,0.6135740662,10.54307767
1.937516,9.207502899,-5.007237396,1.141526184,10.54294162
1.947492,8.917855225,-5.502257996,1.705553284,10.61658593
1.957468,8.489745483,-5.813909912,1.643881531,10.42015707
1.967443,8.067024536,-6.065087585,1.127305756,10.15544143
1.977419,7.699389038,-6.340514832,0.6237528992,9.993587322
1.987395,7.514972534,-6.679559784,0.2625540161,10.05784598
1.997371,7.483687592,-6.825356598,0.08292755127,10.1290646
2.007347,7.463629303,-6.883884888,-0.001945953369,10.1535037
2.017322,7.533084869,-6.923103333,-0.399818573,10.23897369
2.027298,7.586374054,-6.709347839,-0.819994812,10.16074856
2.037274,7.517966309,-6.749913483,-1.286574554,10.18510793
2.04725,7.209457855,-7.023694153,-1.713786163,10.21007469
2.057226,6.701264648,-7.344776459,-2.365381165,10.21996659
2.067201,6.869664459,-7.3176828,-2.632126465,10.37636069
2.077177208,7.297624512,-7.162754974,-2.018552399,10.42280846
2.087153208,7.538024597,-7.067103882,-1.360371094,10.42191833
2.097129208,7.726333008,-6.952741699,-0.8309220886,10.42723695
2.107105208,7.616162109,-7.093598785,-0.5721102905,10.4236452
2.117080208,7.313641205,-7.354057159,-0.503253479,10.38387059
2.127056208,7.030430145,-7.626939697,-0.5287005615,10.38636998
2.137032208,6.78883255,-7.795339508,-0.3852987671,10.34427477
2.147008208,6.568790131,-8.06418045,-0.1811233521,10.40253891
2.156984208,6.166277161,-8.40711731,-0.03353027344,10.4261076
2.166960208,5.962550812,-8.60246109,0.07723937988,10.46710633
2.176935208,6.062393188,-8.725954285,0.180075531,10.62672652
2.186911208,6.40039032,-8.875643005,0.1782792664,10.94412256
2.196887208,6.754254456,-9.174272003,0.1058299255,11.39291095
2.206863208,6.862180023,-9.631870422,-0.01781295776,11.82635869
2.216839208,6.876699829,-10.03303619,-0.1231938171,12.16412728
2.226814208,6.73150177,-10.24035507,-0.1508862305,12.25564175
2.236790208,6.496191101,-10.15563126,-0.3082090759,12.05953307
2.246766208,6.395001526,-10.16221756,-0.4885839844,12.01688082
2.256742208,6.14292572,-10.63388672,-0.4899311829,12.29044815
2.266718208,5.618266754,-10.50111282,-0.3552113342,11.91488426
2.276693208,5.480104065,-9.762249298,-0.3659889221,11.20120528
2.286669208,5.614225159,-9.132808228,-0.06945556641,10.72065923
2.296645208,5.82588501,-8.458460541,0.1474433899,10.27171993
2.306621208,5.953868866,-7.72019577,0.3201841736,9.754614042
2.316597208,6.03993988,-6.990014191,0.4601431274,9.249481274
2.326572208,6.125561829,-6.400839386,0.4781057739,8.872532766
2.336548208,6.162684631,-6.035449219,0.3237767029,8.631926812
2.346524208,6.139782257,-6.101461945,0.03293151855,8.655971841
2.356500208,6.071075134,-6.369853821,-0.1821711731,8.801487222
2.366476208,5.95102478,-6.760092316,-0.2679428101,9.010290639
2.376452208,5.704936523,-7.200326843,-0.2701881409,9.190430296
2.386427208,5.529201965,-7.817044373,-0.5213658142,9.589060403
2.396403208,5.211861877,-8.265062714,-0.6884184265,9.795340005
2.406379208,4.889582062,-8.399333496,-0.7333250427,9.746516379
2.416355208,4.694837036,-8.359665985,-0.7258406067,9.615214754
2.426331208,4.715045013,-8.190368042,-0.6369255066,9.472035275
2.436306208,4.814737701,-7.909252625,-0.5182223511,9.273970596
2.446282208,5.032085724,-7.645950165,-0.3673361206,9.160642798
2.456258208,5.216951294,-7.390581207,-0.2236349487,9.049159297
2.466234208,5.385351105,-7.167844391,-0.04101470947,8.96558319
2.476210208,5.483397217,-7.071145477,0.2447410583,8.951460305
2.486185208,5.518274689,-6.915618896,0.436791687,8.858212418
2.496161208,5.691015472,-6.804849243,0.5001100159,8.885029001
2.506137208,5.7357724,-6.882837067,0.60025177,8.979578681
2.516113208,5.69475769,-6.940167847,0.6277944946,8.999462252
2.526089208,5.553750916,-6.959777069,0.5519023132,8.921168211
2.536065208,5.396577759,-7.031178589,0.486638031,8.876786605
2.546040208,5.221441956,-7.12937439,0.4161346436,8.846728397
2.556016208,5.013374634,-7.156917114,0.3378474426,8.74468574
2.565992208,5.002746735,-7.094047852,0.2387535095,8.683892736
2.575968208,5.091512146,-7.069349213,0.1871109009,8.714023451
2.585944208,5.195096741,-7.077432404,0.09654922485,8.780000075
2.595919208,5.330265656,-7.079228668,-0.006885681152,8.861560693
2.605895208,5.508993988,-7.174580383,-0.1103205872,9.046313562
2.615871208,5.695655823,-7.270081787,-0.1627116394,9.236939944
2.625847208,5.8737854,-7.328161011,-0.2830613708,9.395925844
2.635823208,5.982309723,-7.326065369,-0.2971321106,9.462956774
2.645798208,6.086343384,-7.293732605,-0.343535614,9.505794434
2.655774208,6.233337708,-7.272776184,-0.4102967834,9.587289286
2.665750208,6.354435883,-7.42890152,-0.3778143311,9.783157816
2.675726208,6.396947479,-7.597301331,-0.3285667419,9.937196821
2.685702208,6.496490479,-7.819140015,-0.3125500488,10.17059618
2.695678208,6.577322388,-8.110284576,-0.2227368164,10.44449603
2.705653208,6.624174957,-8.50306778,-0.09684860229,10.77920383
2.715629208,6.709198151,-8.668473816,0.04221221924,10.96164039
2.725605208,6.8041008,-8.747808838,0.1811233521,11.0838961
2.735581208,7.05333252,-8.756191406,0.3201841736,11.24824011
2.745557208,7.260052643,-8.730744324,0.3917353821,11.36167758
2.755532208,7.369774475,-8.685987396,0.4577481079,11.40041605
2.765508208,7.455396423,-8.537645874,0.629740448,11.35213222
2.775484208,7.662266235,-8.436605988,0.7951464844,11.42448696
2.785460208,8.023764496,-8.626860352,0.8536747742,11.81237812
2.795436208,8.580307159,-9.203610992,0.8427474976,12.61104078
2.805412208,8.957522736,-10.05189697,0.7135661316,13.4828418
2.815387208,8.940757599,-10.76097244,0.6950047302,14.00780875
2.825363208,8.953780518,-11.21842117,0.6096821594,14.36644951
2.835339208,8.829239502,-11.10884903,0.7054829407,14.20773392
2.845315208,8.750952301,-10.56068893,0.7846682739,13.73764977
2.855291208,8.944200439,-10.07105713,0.8749305725,13.49779303
2.865267208,9.117689667,-9.921667786,1.085542603,13.51851172
2.875242208,9.0681427,-9.776469727,1.406175842,13.40850114
2.885218208,9.039552155,-9.34431839,1.732197876,13.11603213
2.895194208,9.04119873,-8.756790161,2.036664734,12.7503981
2.905170208,8.99674118,-8.072563019,2.237846375,12.29290779
2.915146208,8.989705811,-7.295379181,2.254012756,11.79482689
2.925121208,9.042096863,-6.530619507,2.083517303,11.34678594
2.935097208,9.104217682,-5.851781158,1.753453674,10.96379141
2.945073208,9.211993561,-5.263205109,1.389710083,10.7001611
2.955049208,9.366921387,-4.948858795,1.104702759,10.65132798
2.965025208,9.533225555,-4.819827118,0.899329834,10.72016404
2.975001208,9.67423233,-4.798421631,0.7207511902,10.82289719
2.984976208,9.696685638,-4.896018677,0.4547543335,10.87214389
2.994952208,9.647887115,-5.056335297,0.1122665405,10.89315639
3.004928208,9.588460693,-5.237009583,-0.1916015625,10.92710204
3.014904208,9.338929596,-5.553601227,-0.5065466309,10.87725526
3.024880208,9.113498383,-5.808970184,-0.6454577637,10.82666168
3.034856208,9.086704102,-6.096372528,-0.6722520447,10.96293174
3.044831208,8.899144135,-6.315666504,-0.3903881836,10.91946943
3.054807208,8.705147552,-6.380182343,-0.03263214111,10.7929322
3.064783208,8.544381866,-6.402935028,0.3272195435,10.68228024
3.074759208,8.393495636,-6.572532349,0.6668632507,10.68146325
3.0847345,8.222102051,-6.669380951,0.8942404175,10.62465389
3.0947105,8.096812592,-6.805897064,1.038390656,10.62811668
3.1046855,7.8020755,-7.130122833,0.980760498,10.61475035
3.1146615,7.463778992,-7.474855957,0.6081852722,10.58070686
3.1246375,7.271279297,-7.771539001,0.2724334717,10.6462454
3.1346135,7.081473999,-7.921826477,0.05179229736,10.62569015
3.1445895,6.873406677,-7.914042664,-0.09924362183,10.48263516
3.1545645,6.723119202,-7.9507164,-0.1255888367,10.41297247
3.1645405,6.51041153,-7.970924377,0.02110610962,10.29181904
3.1745165,6.470444641,-8.037685547,0.2618055725,10.32180144
3.1844925,6.369404755,-8.192613373,0.3734733582,10.38401238
3.1944685,6.269412689,-8.18123703,0.2495310974,10.3102105
3.2044445,6.115832062,-8.192164307,0.1359173584,10.2241592
3.2144195,5.964347076,-8.274044037,0.1866618347,10.20137654
3.2243955,5.865851898,-8.369844818,-0.07424560547,10.22096048
3.2343715,5.802683258,-8.294850769,-0.6261479187,10.14237366
3.2443475,5.908812561,-8.103398895,-0.9999206543,10.07863983
3.2543235,6.007756805,-7.998167725,-1.387614441,10.09897533
3.2642995,6.084247742,-7.881260834,-1.388662262,10.05289639
3.2742745,6.198759613,-7.884703674,-1.342558136,10.11907284
3.2842505,6.210135956,-7.894283752,-1.259480896,10.12283541
3.2942265,6.293961639,-7.973918152,-0.8873547363,10.19728995
3.3042025,6.530918884,-8.054001617,-0.5248086548,10.38244998
3.3141785,6.674470367,-7.942633209,-0.8547225952,10.40982842
3.3241545,6.779551849,-7.686964874,-1.03434906,10.30153533
3.3341295,6.978039093,-7.546407166,-1.045126648,10.33119453
3.3441055,7.099137268,-7.470365295,-1.070274353,10.36096495
3.3540815,7.133266296,-7.457192688,-1.148411865,10.38325867
3.3640575,6.658753052,-7.701185303,-2.04414917,10.38391993
3.3740335,7.207960968,-7.494315491,-1.103654938,10.4564583
3.3840095,7.418722687,-7.604785767,-0.02469863892,10.62406809
3.3939845,7.296277313,-7.660919037,-0.5754034424,10.5951136
3.4039605,7.12817688,-7.796387329,-0.4222718811,10.57226913
3.4139365,7.159162445,-8.035140839,-0.5596861267,10.77637897
3.4239125,7.140002289,-8.518934784,-0.9596543884,11.15673873
3.4338885,6.622827759,-9.476343842,-2.201172638,11.76894647
3.4438645,5.96973587,-10.20083725,-3.540138245,12.33804708
3.4538395,5.820795593,-10.22089554,-4.086202698,12.45172355
3.4638155,6.087241516,-9.772727509,-3.660188599,12.08129516
3.4737915,6.747069397,-9.290580139,-2.731968842,11.80260473
3.4837675,7.217990112,-9.06469986,-1.852547607,11.73456848
3.4937435,7.347171478,-8.912017365,-1.161434784,11.60835531
3.5037195,7.20541626,-8.62117218,-0.5165757751,11.24764348
3.5136945,6.939569092,-8.187374268,-0.03053649902,10.73273726
3.5236705,6.740183716,-7.638465729,0.3317102051,10.19246128
3.5336465,6.5665448,-7.002288666,0.6354286194,9.620567899
3.5436225,6.450236664,-6.415808258,0.9006770325,9.142175219
3.5535985,6.319708099,-6.002218323,1.033600616,8.776882447
3.5635745,6.120173035,-5.85507431,0.9909393311,8.527624166
3.5735495,5.911207581,-6.023324432,0.7393125916,8.471681969
3.5835255,5.668412476,-6.364165649,0.3502716064,8.529724181
3.5935015,5.38475235,-6.703659668,-0.102387085,8.599133324
3.6034775,5.189408569,-7.056176605,-0.5617817688,8.7769692
3.6134535,4.969515839,-7.555388489,-1.06129303,9.105291087
3.6234295,4.647984467,-8.00220932,-1.603166199,9.391978251
3.6334045,4.365521851,-8.141719208,-2.020947418,9.456722538
3.6433805,4.251908112,-8.061336365,-2.211201782,9.378340999
3.6533565,4.448299713,-7.85012558,-2.057920532,9.254559896
3.6633325,4.876858521,-7.561376038,-1.594334564,9.137836687
3.6733085,5.313949585,-7.326514435,-1.087787933,9.115873877
3.6832845,5.534441071,-7.205565948,-0.7384144592,9.115671918
3.6932605,5.74864563,-7.155270538,-0.4821473694,9.191152765
3.7032355,5.8844133,-7.05333252,-0.2814147949,9.189940903
3.7132115,5.907615051,-6.97953598,-0.2709365845,9.148073279
3.7231875,5.857020264,-6.957082672,-0.3547622681,9.101183546
3.7331635,5.728587341,-6.937174072,-0.3576063538,9.00383137
3.7431395,5.603297882,-6.904541931,-0.3131488037,8.897623762
3.7531155,5.499114532,-6.882837067,-0.205821991,8.81226812
3.7630905,5.374723206,-6.996151428,-0.1294807434,8.823295847
3.7730665,5.299429779,-7.097041626,-0.07020401001,8.857589087
3.7830425,5.255121918,-7.240593109,-0.02080673218,8.946671329
3.7930185,5.256768494,-7.373217316,0.003891906738,9.055272703
3.8029945,5.354515228,-7.455396423,-0.002844085693,9.178985633
3.8129705,5.466781769,-7.464078369,0.002694396973,9.251928235
3.8229455,5.629792786,-7.440726929,-0.0419128418,9.33063453
3.8329215,5.865402832,-7.427554321,-0.1181044006,9.464959706
3.8428975,6.048023071,-7.372618561,-0.2200424194,9.538475045
3.8528735,6.193370819,-7.32471817,-0.3294648743,9.597806285
3.8628495,6.349047089,-7.382198639,-0.3712280273,9.743975879
3.8728255,6.421795807,-7.523804169,-0.4278103638,9.901015719
3.8828015,6.544390869,-7.731422424,-0.4575984192,10.13969136
3.8927765,6.639892273,-7.986342316,-0.4628375244,10.39634799
3.9027525,6.790479126,-8.252937927,-0.4447251892,10.6966991
3.9127285,6.988068237,-8.513845367,-0.453407135,11.02380328
3.9227045,7.291636963,-8.751251678,-0.4352947998,11.39920423
3.9326805,7.651788025,-8.88447464,-0.4843927002,11.73534771
3.9426565,8.010142822,-9.095685425,-0.4725672913,12.12918799
3.9526315,8.249046021,-9.162596283,-0.4493655396,12.33701181
3.9626075,8.704399109,-9.085356903,-0.4288581848,12.58944769
3.9725835,9.066496124,-8.871900787,-0.374072113,12.69062274
3.9825595,9.343270569,-8.529412994,-0.4564009094,12.65922165
3.9925355,9.459129639,-8.160430298,-0.5063969421,12.50296741
4.0025115,9.561067657,-7.698640594,-0.4818479919,12.28475719
4.0124875,9.679471436,-7.329508209,-0.4068539429,12.14822571
4.0224625,9.939031677,-7.270530853,-0.4430786133,12.32238971
4.0324385,10.46399002,-7.702532501,-0.5725593567,13.0058417
4.0424145,10.87653214,-8.497529297,-0.7265890503,13.82153707
4.0523905,11.16318604,-9.135502625,-0.8550219727,14.45009319
4.0623665,11.26078308,-9.325457611,-0.8422984314,14.64509686
4.0723425,11.02666992,-9.180708618,-0.8964857483,14.37624941
4.082318583,10.75513458,-8.708141327,-0.942739563,13.87059491
4.092293583,10.37297928,-8.236322479,-0.7530839539,13.26660629
4.102269583,9.978998566,-7.789202271,-0.4366419983,12.66659941
4.112245583,9.705666962,-7.319179688,-0.1252894592,12.156729
4.122221583,9.529633026,-6.746021576,0.2528242493,11.67846877
4.132197583,9.441316681,-6.127956848,0.4849914551,11.26612322
4.142173583,9.340725861,-5.620811462,0.4945715332,10.91271195
4.152148583,9.185498657,-5.319937134,0.2978805542,10.61903242
4.162124583,9.009315033,-5.138215027,-0.06885681152,10.37177672
4.172100583,8.792715454,-5.218747559,-0.4544549561,10.23492552
4.182076583,8.621321869,-5.477559357,-0.8372090149,10.24850068
4.192052583,8.559949493,-5.833519135,-1.312470703,10.44151618
4.202028583,8.474477234,-6.159391479,-1.722168732,10.61700207
4.212004583,8.355923767,-6.4179039,-1.952988739,10.71564825
4.221979583,8.167465668,-6.59348877,-1.976789246,10.6812586
4.231955583,7.870483246,-6.815626831,-1.980531464,10.59810268
4.241931583,7.539521484,-6.87430481,-1.986519012,10.39455187
4.251907583,7.580835571,-6.615792389,-1.786235504,10.21902217
4.261883583,7.661218414,-6.439309387,-1.398990784,10.10525349
4.271859583,7.656428375,-6.286626892,-1.116079102,9.969363355
4.281834583,7.667205963,-6.176455994,-1.045276337,9.900871605
4.291810583,7.611671448,-6.162235565,-1.023721161,9.846760605
4.301786583,7.464377747,-6.251150665,-1.138233032,9.802519789
4.311762583,7.248975677,-6.422993317,-1.252295837,9.765794201
4.321738583,7.153623962,-6.529871063,-1.264720001,9.767961332
4.331714583,7.082072754,-6.593788147,-1.143472137,9.743783924
4.341690583,6.903194733,-6.781647491,-1.000070343,9.728565203
4.351665583,6.816225586,-6.950496368,-0.8948391724,9.776045629
4.361641583,6.699019318,-7.042105865,-0.769100647,9.749852852
4.371617583,6.694229279,-7.045249329,-0.6078858948,9.737441604
4.381593583,6.657854919,-7.085665283,-0.4019142151,9.731146884
4.391569583,6.660848694,-7.123087463,-0.2983296204,9.756755654
4.401545583,6.611750793,-7.109016724,-0.260458374,9.711910517
4.411521583,6.610403595,-7.061565399,-0.2749781799,9.676711971
4.421496583,6.552174683,-7.078929291,-0.4192781067,9.654948322
4.431472583,6.443949738,-7.165299683,-0.6340814209,9.657539387
4.441448583,6.223607941,-7.368277588,-0.8551716614,9.68277486
4.451424583,5.990392914,-7.553592224,-1.09048233,9.702098457
4.461400583,5.871390381,-7.730224915,-1.210233307,9.782344652
4.471376583,5.702092438,-7.933053131,-1.165775757,9.839015361
4.481352583,5.469925232,-8.106991425,-1.097218323,9.841101567
4.491327583,5.452261963,-8.067024536,-0.9403445435,9.782039319
4.501303583,5.40466095,-8.065677338,-0.7644602966,9.739091869
4.511279583,5.314847717,-8.095465393,-0.6101312256,9.703423432
4.521255583,5.239254913,-7.99756897,-0.6117778015,9.580457899
4.531231583,5.258115692,-7.863447876,-0.6965016174,9.485078156
4.541207583,5.368585968,-7.787256317,-0.7685018921,9.48966129
4.551183583,5.497467957,-7.706424408,-0.8738827515,9.506566265
4.561158583,5.572012939,-7.704179077,-0.952918396,9.555613895
4.571134583,5.650599518,-7.795189819,-1.116827545,9.692345588
4.581110583,5.699248352,-7.729027405,-1.381776581,9.701989637
4.591086583,5.758225708,-7.578440552,-1.520088959,9.638495471
4.601062583,5.897436218,-7.489226074,-1.473386078,9.645679223
4.611038583,5.989494781,-7.37157074,-1.301693115,9.586892504
4.621014583,6.016438751,-7.162605286,-1.093176727,9.417828045
4.630989583,6.20265152,-7.123386841,-1.027014313,9.501067538
4.640965583,6.486012268,-7.509134674,-1.271006927,10.00354524
4.650941583,6.579717407,-8.225544891,-1.787433014,10.68396868
4.660917583,6.478827209,-8.915909271,-2.30969696,11.26069892
4.670893583,6.270161133,-9.589358826,-2.684068451,11.76753784
4.680869583,5.822741547,-10.11491592,-3.141217804,12.08648388
4.690845583,5.371430054,-10.14066238,-3.6389328,12.03856828
4.700820583,5.420677643,-9.83335144,-3.75134903,11.83854578
4.710796583,5.820945282,-9.322613525,-3.210373993,11.44993572
4.720772583,6.173162842,-8.888965302,-2.466121674,11.09970269
4.730748583,6.418802032,-8.413853302,-1.81602356,10.73740604
4.740724583,6.619534607,-7.766898651,-1.279688873,10.28496751
4.750700583,6.693031769,-7.115902405,-0.7719447327,9.799420389
4.760676583,6.768474884,-6.583459625,-0.4691244507,9.453796626
4.770651583,6.654412079,-6.168971558,-0.5692662048,9.09183558
4.780627583,6.574777679,-5.910608826,-0.835562439,8.880380781
4.790603583,6.493347015,-5.984704742,-0.8638536072,8.872794902
4.800579583,6.295159149,-6.315516815,-0.9645941162,8.969126109
4.810555583,6.086493073,-6.856491852,-1.022074585,9.225048233
4.820531583,5.743107147,-7.610174561,-0.9036708069,9.576776988
4.830507583,5.472170563,-8.208779755,-0.7929011536,9.89734348
4.840482583,5.30511795,-8.729846191,-0.5742059326,10.23152987
4.850458583,5.14016098,-9.015452271,-0.4110452271,10.38598059
4.860434583,5.051694946,-8.98386795,-0.323177948,10.31183539
4.870410583,5.108277283,-8.673114166,-0.2302212524,10.06828724
4.880386583,5.325924683,-8.312813416,-0.1724414062,9.874111436
4.890362583,5.821394348,-8.041278076,0.0375718689,9.927345914
4.900338583,6.430028687,-7.718549194,0.5387297058,10.06039265
4.910313583,6.943460999,-7.285200348,1.025667114,10.1162141
4.920289583,7.398065643,-6.904242554,1.334774323,10.206937
4.930265583,7.773934021,-6.699468384,1.515149231,10.3736495
4.940241583,7.92736496,-6.678661652,1.55975647,10.48238889
4.950217583,7.845634918,-6.700366516,1.44734024,10.41843042
4.960193583,7.49087265,-6.765181732,1.18882782,10.16337387
4.970169583,7.023544464,-7.032525787,0.8843609619,9.978411201
4.980144583,6.609056396,-7.487130432,0.6189628601,10.00599138
4.990120583,6.227050781,-7.629634094,0.3603007507,9.854810728
5.000096583,6.106551361,-7.492219849,0.1673519897,9.667023041
5.010072583,6.11717926,-7.465425568,0.2415975952,9.65457562
5.020048583,6.304888916,-7.387587433,0.3011737061,9.716932537
5.030024583,6.55711441,-7.272476807,0.4451742554,9.8021859
5.040000583,6.838678894,-7.191644897,0.6021977234,9.942330081
5.049975583,7.134912872,-7.084617462,0.7206015015,10.080578
5.059951583,7.350314941,-7.12353653,0.8262817383,10.26911116
5.069927583,7.422614594,-7.170838165,0.923429718,10.36189412
5.07990375,7.329358521,-7.114555206,0.9903405762,10.26241524
5.08987975,7.204518127,-7.063511353,0.9848020935,10.13746069
5.09985575,6.942712555,-7.164251862,0.9858499146,10.02495199
5.10983175,6.74557251,-7.415130157,0.8758287048,10.06250365
5.11980675,6.721772003,-7.608977051,0.7415579224,10.17981624
5.12978275,6.800358582,-7.641908569,0.6912625122,10.25287702
5.13975875,6.923851776,-7.528893585,0.5752537537,10.24474885
5.14973475,7.126380615,-7.381599884,0.4980143738,10.27235785
5.15971075,7.326364746,-7.326065369,0.4300556946,10.3697542
5.16968675,7.457492065,-7.339836731,0.4813989258,10.47469026
5.17966275,7.561376038,-7.517217865,0.5857319641,10.67829827
5.18963875,7.676037598,-7.85132309,0.5553451538,10.99423648
5.19961375,7.689659271,-8.08768158,0.5185217285,11.17185382
5.20958975,7.595505066,-8.284971313,0.5671705627,11.25407168
5.21956575,7.558681641,-8.346343689,0.5260061646,11.27261299
5.22954175,7.552394714,-8.303981781,0.5053491211,11.23610952
5.23951775,7.438481598,-8.137378235,0.4923262024,11.03586508
5.24949375,7.573201447,-7.896229706,0.4068539429,10.94848637
5.25946975,8.129295044,-7.76465332,0.3617976379,11.24749646
5.26944475,8.779542847,-7.87347702,0.1833686829,11.79430528
5.27942075,9.083560638,-8.213569794,-0.0975970459,12.24676806
5.28939675,8.974138184,-8.680149536,-0.4438270569,12.49308347
5.29937275,8.771908722,-9.129964142,-0.4510121155,12.66909783
5.30934875,8.510851593,-9.190737762,-0.06376739502,12.52630519
5.31932475,8.258326721,-8.877738647,0.09220825195,12.125292
5.32930075,8.059240723,-8.456514587,0.3594026184,11.68730808
5.33927575,8.218958588,-8.165220337,0.4710704041,11.59499939
5.34925175,8.5240242,-7.699389038,0.3722758484,11.49252668
5.35922775,8.641230469,-7.180717621,0.2751278687,11.23873947
5.36920375,8.633446655,-6.974446564,0.1793270874,11.10006596
5.37917975,8.632548523,-6.802603912,0.2935395813,10.99465686
5.38915575,8.560248871,-6.887477417,0.3914360046,10.99401783
5.39913175,8.18003952,-7.071295166,0.2287243652,10.81520119
5.40910675,7.758665771,-7.36453537,-0.4026626587,10.70492471
5.41908275,7.767347717,-7.425608368,-0.8904981995,10.78259418
5.42905875,7.96014679,-7.412585449,-0.756227417,10.90331325
5.43903475,8.254135437,-7.368427277,-0.2402503967,11.06716732
5.44901075,8.40352478,-7.405101013,0.2809657288,11.20418188
5.45898675,8.142467651,-7.553143158,0.5011578369,11.11759462
5.46896275,7.741152191,-7.806117096,0.3445834351,10.99907447
5.47893875,7.339387665,-8.285121002,0.217048645,11.07054431
5.48891375,7.026837616,-8.750652924,0.1746867371,11.22412085
5.49888975,6.699318695,-8.97458725,0.2571652222,11.20224179
5.50886575,6.349196777,-9.087901611,0.2859054565,11.08981503
5.51884175,6.185287628,-9.043294373,0.3471281433,10.96172678
5.52881775,6.07272171,-9.072783051,0.3454815674,10.92303524
5.53879375,5.982758789,-9.124874725,0.08831634521,10.91166996
5.54876975,6.055357819,-8.907377014,-0.2709365845,10.77414174
5.55874575,6.099066925,-8.416547699,-0.3085084534,10.39865712
5.56872075,6.283184052,-8.085436249,-0.113613739,10.24039009
5.57869675,6.521638184,-8.069269867,0.009280700684,10.37520925
5.58867275,6.594536591,-8.324638824,0.2365081787,10.62278026
5.59864875,6.408922577,-8.472381592,0.2522254944,10.62634256
5.60862475,6.173911285,-8.638985138,0.1890568542,10.62002765
5.61860075,6.059399414,-8.882378998,0.2092648315,10.75438374
5.62857675,5.948480072,-8.939859467,0.6978488159,10.76069214
5.63855175,5.812862091,-8.983119507,1.011746063,10.74753143
5.64852775,5.534890137,-8.871900787,0.8625064087,10.49235673
5.65850375,5.329217834,-8.777746582,0.9692344666,10.3144953
5.66847975,5.272785187,-8.667276306,1.115630035,10.20630063
5.67845575,5.314099274,-8.742719421,1.001866608,10.28000636
5.68843175,5.532345428,-9.152118073,0.8925938416,10.73148801
5.69840775,5.558540955,-9.361083527,0.7252418518,10.91115201
5.70838375,5.488636322,-9.204658813,0.3990701294,10.72427758
5.71835875,5.510640564,-8.912616119,0.1886077881,10.48033675
5.72833475,5.550607452,-8.60485611,0.1531315613,10.24091017
5.73831075,5.54147644,-8.403225403,0.1658551025,10.06725714
5.74828675,5.486091614,-8.25847641,0.1927990723,9.916491582
5.75826275,5.262007599,-8.12974411,0.2353106689,9.686941436
5.76823875,5.00798584,-7.99756897,0.1230441284,9.436957744
5.77821475,4.752167816,-7.878117371,0.005538482666,9.200427323
5.78819075,4.532275085,-7.69804184,-0.08113128662,8.93352942
5.79816575,4.452940063,-7.592361603,-0.00209564209,8.801854027
5.80814175,4.55517746,-7.54940094,0.2417472839,8.820518011
5.81811775,4.682562561,-7.558531952,0.3637435913,8.898882335
5.82809375,4.739593964,-7.508685608,0.3121009827,8.884903912
5.83806975,4.764442291,-7.437882843,0.2360591125,8.836160673
5.84804575,4.678970032,-7.337142334,0.120050354,8.70292079
5.85802175,4.687801666,-7.215595093,-0.1805245972,8.606560645
5.86799775,4.690795441,-7.108118591,-0.5013075256,8.531132458
5.87797275,4.667444,-6.918462982,-0.8134085083,8.385212993
5.88794875,4.77746521,-6.557563477,-1.124311981,8.190841838
5.89792475,4.876708832,-6.215973816,-1.329086151,8.011684561
5.90790075,4.936284943,-5.961502991,-1.370100861,7.860254659
5.91787675,5.107229462,-5.901477814,-1.31396759,7.914401051
5.92785275,5.507347412,-6.070027313,-1.25199646,8.291176167
5.93782875,5.972879333,-6.494993591,-1.25319397,8.912391621
5.94780475,6.193969574,-7.202871552,-1.339564362,9.593802705
5.95777975,6.313271484,-7.880662079,-1.314716034,10.18286354
5.96775575,6.567442932,-8.5638414,-1.111887817,10.8492848
5.97773175,6.778803406,-8.708740082,-1.039438477,11.08488889
5.98770775,7.013365631,-8.746461639,-1.258732452,11.28150239
5.99768375,7.232360229,-8.890013123,-1.376238098,11.54267729
6.00765975,7.480693817,-9.009165344,-1.472188568,11.80225315
6.01763575,7.915539551,-8.603359222,-1.090182953,11.74146733
6.02761175,8.344397736,-7.768545227,-0.3276686096,11.40555282
6.03758675,8.66802475,-6.879693604,0.2116598511,11.06840716
6.04756275,9.051676941,-5.870492249,0.4601431274,10.79848445
6.05753875,9.341773682,-4.78450058,0.4697232056,10.50622773
6.06751475,9.516460419,-3.897445221,0.4749623108,10.29459506
6.07749075,9.48008606,-3.483705597,0.3246748352,10.10512989
6.087467125,9.181157684,-3.429069214,0.005089416504,9.800622327
6.097443125,8.691226501,-3.67171463,-0.5040019226,9.448435022
6.107419125,7.998916168,-4.227808228,-0.9433383179,9.096532826
6.117394125,7.508835297,-4.920567627,-1.195264435,9.056668833
6.127370125,7.102879486,-5.499114532,-1.255738678,9.070172946
6.137346125,6.809040527,-6.04353241,-1.292262726,9.195502153
6.147322125,6.72910675,-6.45308075,-1.31052475,9.41491391
6.157298125,6.753805389,-6.606661377,-1.289718018,9.535472424
6.167274125,6.942413177,-6.559359741,-1.221459961,9.628824714
6.177250125,7.18550766,-6.400989075,-1.221459961,9.700316794
6.187226125,7.377707977,-6.263874207,-1.219963074,9.754742691
6.197202125,7.428003387,-6.135441284,-1.15020813,9.702672458
6.207177125,7.562124481,-6.145021362,-1.14556778,9.811184421
6.217153125,7.499404907,-6.056555328,-0.9445358276,9.685818723
6.227129125,7.337741089,-6.098019104,-0.6478527832,9.562844478
6.237105125,7.122638397,-6.280339966,-0.3686833191,9.503187634
6.247081125,6.857988739,-6.477030945,-0.186512146,9.434973566
6.257057125,6.596482544,-6.546187134,0.01571731567,9.293352193
6.267033125,6.424789581,-6.5957341,0.1821711731,9.209495959
6.277009125,6.226601715,-6.682104492,0.3641926575,9.140772706
6.286985125,6.133495331,-6.668183441,0.4911286926,9.073347936
6.296960125,6.133345642,-6.619534607,0.5492079163,9.04089578
6.306936125,6.18858078,-6.550228729,0.5243595886,9.026570858
6.316912125,6.25055191,-6.449039154,0.366587677,8.988542247
6.326888125,6.400839386,-6.443500671,0.09086105347,9.082824532
6.336864125,6.482120361,-6.530619507,-0.05298980713,9.201613089
6.346840125,6.487958221,-6.590494995,-0.1384620667,9.249183635
6.356816125,6.353388062,-6.610852661,-0.2573149109,9.172520032
6.366792125,6.182443542,-6.707102509,-0.2914439392,9.126487374
6.376767125,6.05056778,-6.851402435,-0.1332229614,9.141599102
6.386743125,5.938301239,-6.876250763,0.1654060364,9.087001998
6.396719125,5.982309723,-6.799460449,0.512384491,9.071010412
6.406695125,6.100114746,-6.735393677,0.665665741,9.111533283
6.416671125,6.188131714,-6.785539398,0.7152127075,9.21130003
6.426647125,6.25055191,-6.966063995,0.6360273743,9.380830325
6.436623125,6.293063507,-7.253616028,0.5099894714,9.616531758
6.446599125,6.341562653,-7.53772522,0.3197351074,9.855706413
6.456575125,6.389463043,-7.735613708,0.205821991,10.03530369
6.466550125,6.498436432,-7.795189819,0.1686991882,10.15003053
6.476526125,6.561904449,-7.895032196,0.2251318359,10.26843745
6.486502125,6.61803772,-8.195008392,0.4716691589,10.54414803
6.496478125,6.675967255,-8.485703888,0.7397616577,10.822336
6.506454125,6.806645508,-8.554560699,0.9232800293,10.97102447
6.516430125,7.003935242,-8.292904816,1.067280579,10.90717502
6.526406125,7.419920197,-7.731123047,1.111289062,10.77313523
6.536382125,7.982151031,-7.113357697,1.042731628,10.7425268
6.546358125,8.539741516,-6.653513947,0.8690927124,10.86055961
6.556333125,9.177116089,-6.340065765,0.5471122742,11.16759712
6.566309125,9.693991241,-6.574927368,0.02469863892,11.71340028
6.576285125,9.598639526,-7.45584549,-0.5968089294,12.16880001
6.586261125,9.147926788,-8.214168549,-1.219364319,12.35491719
6.596237125,8.841813354,-8.928034058,-1.424587555,12.6458256
6.606213125,8.580456848,-9.73740097,-0.8672964478,13.00743712
6.616189125,8.211773529,-10.13437546,-0.009430389404,13.0437295
6.626165125,8.108188934,-10.02420456,0.7740403748,12.916135
6.636141125,8.231682129,-9.487121429,1.625469818,12.66523651
6.646116125,8.493487701,-8.595725098,2.026934967,12.2529298
6.656092125,8.987759857,-7.515122223,2.014061737,11.8875285
6.666068125,9.452393646,-6.326144714,1.907782745,11.53288722
6.676044125,9.732461243,-5.407205658,1.609602814,11.24942203
6.686020125,9.989177399,-4.853207703,1.119521942,11.16201682
6.695996125,9.943672028,-4.712350616,0.5288502502,11.01646696
6.705972125,9.807305603,-5.101840668,-0.1224453735,11.05563269
6.715948125,9.555828552,-5.90072937,-0.758921814,11.25648385
6.725924125,9.320817261,-6.452631683,-1.070873108,11.38687223
6.735900125,9.165440369,-6.691385193,-1.079405365,11.39934423
6.745875125,9.192384338,-7.022197266,-0.7556286621,11.5923319
6.755851125,9.202114105,-7.16095871,-0.1957928467,11.66175666
6.765827125,9.25300827,-6.894213409,0.495769043,11.54963755
6.775803125,9.203760681,-6.669231262,0.899329834,11.40160736
6.785779125,9.036708069,-6.554719391,0.9321116638,11.20246719
6.795755125,8.698561249,-6.538702698,0.9699829102,10.92522163
6.805731125,8.167914734,-6.571334839,0.8330177307,10.51623465
6.815707125,7.649393005,-6.614295502,0.7322772217,10.13895203
6.825683125,7.158713379,-6.650071106,0.6315367126,9.791295194
6.835658125,6.827751617,-6.553521881,0.5861810303,9.482112075
6.845634125,6.517746277,-6.589596863,0.5683680725,9.285841136
6.855610125,6.21552475,-6.710096283,0.3966751099,9.155080075
6.865586125,6.036347351,-6.649322662,0.1242416382,8.981448502
6.875562125,5.981261902,-6.373895416,-0.2083666992,8.743309064
6.885538125,5.977669373,-6.072122955,-0.5203179932,8.536623403
6.895514125,6.045178986,-5.730233917,-0.6903643799,8.358012485
6.905490125,6.062692566,-5.454207916,-0.6776408386,8.183142566
6.915466125,6.018085327,-5.36364624,-0.5821394348,8.082384445
6.925441125,5.923182678,-5.430557098,-0.3793112183,8.044807048
6.935417125,5.763015747,-5.661526794,-0.1466949463,8.080022002
6.945393125,5.506000214,-5.8737854,-0.03817062378,8.051015481
6.955369125,5.348228302,-5.942791901,0.01841171265,7.995039746
6.965345125,5.278623047,-6.07631424,0.06122268677,8.049174133
6.975321125,5.434748383,-6.084996185,0.08921447754,8.159143814
6.985297125,5.722599792,-6.004164276,0.06077362061,8.294686882
6.995273125,6.079457703,-5.957910461,-0.1683998108,8.513804174
7.005249125,6.448141022,-5.90536972,-0.5388793945,8.760268556
7.015225125,6.72910675,-5.893843689,-0.8547225952,8.986034821
7.025200125,6.992858276,-6.005810852,-1.144969025,9.288745068
7.035176125,7.136559448,-6.208190002,-1.337618408,9.553079444
7.045152125,7.243137817,-6.409371643,-1.38776413,9.770822871
7.055128125,7.252119141,-6.650520172,-1.423240356,9.942246411
7.065104125,7.235952759,-6.855444031,-1.503323822,10.08048152
7.075080125,7.267686768,-7.018904114,-1.574875031,10.22567931
7.085055458,7.341782684,-6.992259521,-1.605561218,10.26505202
7.095031458,7.435637512,-6.877597961,-1.611099701,10.25600805
7.105007458,7.537425842,-6.872658234,-1.48595993,10.30797247
7.114983458,7.50958374,-7.011419678,-1.387315063,10.36718365
7.124958458,7.415878601,-7.201224976,-1.417851562,10.4337529
7.134934458,7.162305908,-7.485783234,-1.450483704,10.46133259
7.144910458,7.061116333,-7.764054565,-1.274300079,10.57183749
7.154886458,6.836433563,-7.957901459,-0.8970845032,10.52947198
7.164862458,6.654412079,-7.918233948,-0.5944139099,10.36016201
7.174838458,6.48810791,-7.876919861,-0.3769161987,10.21192815
7.184814458,6.35593277,-7.889793091,-0.2149530029,10.13375158
7.194790458,6.347250824,-7.911497955,-0.1026864624,10.14346772
7.204766458,6.479575653,-8.267158356,-0.1407073975,10.50478969
7.214742458,6.390361176,-8.923842773,-0.3291654968,10.98089412
7.224717458,6.082601166,-9.381890259,-0.5637277222,11.19534237
7.234693458,5.6959552,-9.555529175,-0.6926097107,11.14592983
7.244669458,5.394931183,-9.610315247,-0.7002438354,11.04326868
7.254645458,5.320984955,-9.746382294,-0.7104226685,11.12697394
7.264621458,5.324876862,-9.876012726,-0.6026467896,11.23624155
7.274597458,5.366340637,-9.794582062,-0.4902305603,11.17907758
7.284573458,5.412594452,-9.513616333,-0.3689826965,10.95176802
7.294549458,5.377567291,-9.114097137,-0.28081604,10.58602164
7.304525458,5.430108032,-8.606802063,-0.2477348328,10.17961136
7.314501458,5.561684418,-7.973469086,-0.2064207458,9.723741685
7.324476458,5.653742981,-7.220684509,-0.1022373962,9.171343793
7.334452458,5.69131485,-6.663842468,-0.09490264893,8.763952743
7.344428458,5.785918121,-6.320905609,-0.1538800049,8.570552799
7.354404458,6.013145599,-6.020031281,-0.07888595581,8.509108039
7.364380458,6.30204483,-5.992338867,0.09894424438,8.696762852
7.374356458,6.453978882,-6.32434845,0.08666976929,9.036522471
7.384332458,6.459517365,-6.901398468,-0.1486408997,9.453928258
7.394308458,6.212081909,-7.63367569,-0.4945715332,9.854317185
7.404284458,5.906716919,-8.431067505,-0.6830296326,10.31691492
7.414260458,5.650599518,-8.953032074,-0.5135820007,10.59952002
7.424235458,5.431604919,-9.160201263,-0.185464325,10.65110399
7.434211458,5.188959503,-9.250762939,0.3061134338,10.61110838
7.444187458,5.077740784,-9.172775116,0.7494914246,10.51118415
7.454163458,5.266049194,-8.809480591,1.06473587,10.31852145
7.464139458,5.706433411,-8.260272675,1.307231598,10.12444277
7.474115458,6.086343384,-7.96014679,1.44973526,10.12468493
7.484091458,6.352190552,-7.872429199,1.405577087,10.21279165
7.494067458,6.527625732,-7.749983826,1.314266968,10.21760464
7.504043458,6.617588654,-7.684270477,1.235830078,10.21605444
7.514019458,6.469546509,-7.776179352,1.277892609,10.1959309
7.523994458,6.250252533,-7.818092194,1.237177277,10.08557534
7.533970458,6.044280853,-7.822133789,1.183888092,9.95593788
7.543946458,5.906417542,-7.743098145,1.215622101,9.814228148
7.553922458,5.770949249,-7.620353394,1.26367218,9.642121575
7.563898458,5.654641113,-7.476053467,1.279988251,9.46069297
7.573874458,5.639971619,-7.365583191,1.181942139,9.351902631
7.583850458,5.67963913,-7.388934631,1.139879608,9.389035155
7.593826458,5.827830963,-7.397466888,1.051563263,9.475859613
7.603802458,6.005062408,-7.377707977,0.9608518982,9.561097526
7.613778458,6.175857239,-7.271428986,0.9428892517,9.586653862
7.623754458,6.341562653,-7.245682526,0.9949809265,9.680150783
7.633729458,6.458170166,-7.243437195,1.025068359,9.75838662
7.643705458,6.594985657,-7.129673767,1.007105713,9.764238104
7.653681458,6.747668152,-7.113806763,1.018482056,9.857716665
7.663657458,6.885381775,-7.230713654,1.052311707,10.03987361
7.673633458,6.909481659,-7.206015015,1.049317932,10.03835929
7.683609458,6.991361389,-7.133415985,0.995280304,10.03769598
7.693585458,7.059918823,-7.212900696,0.956660614,10.13822419
7.703561458,7.061565399,-7.242539063,0.9563612366,10.16044806
7.713537458,7.10946579,-7.171586609,1.01683548,10.14938977
7.723513458,7.176077271,-7.218588867,1.063538361,10.23402287
7.733488458,7.293732605,-7.426656189,1.147513733,10.47237056
7.743464458,7.358398132,-7.67933075,1.295705566,10.71433604
7.753440458,7.245981903,-7.748187561,1.335223389,10.6921226
7.763416458,7.312892761,-7.680977325,1.312321014,10.68634641
7.773392458,7.493716736,-7.920928345,1.446741486,10.9995435
7.783368458,7.429200897,-8.03843399,1.586251373,11.06009224
7.793344458,7.361242218,-7.862250366,1.713636475,10.90593498
7.803320458,7.284751282,-7.720644836,1.879341888,10.77997606
7.813296458,7.419620819,-7.642207947,1.834435272,10.80829627
7.823272458,7.896828461,-8.116571503,1.672621765,11.44710864
7.833247458,8.149203644,-8.899443512,1.452429657,12.1539774
7.843223458,8.07121582,-9.482930145,1.268761597,12.51719797
7.853199458,7.922724609,-9.718240814,1.342258759,12.61013197
7.863175458,7.857011261,-9.470056915,1.395248566,12.38391386
7.873151458,7.743098145,-9.08221344,1.211281128,11.99622323
7.883127458,7.743547211,-8.902287598,0.9008267212,11.83320483
7.893103458,7.663164368,-8.870104523,0.8813671875,11.75498407
7.903079458,7.575895844,-8.619525604,1.116677856,11.52984774
7.913055458,7.543862457,-8.383765869,1.356778564,11.35949994
7.923031458,7.430697784,-8.04786438,1.515897675,11.05808918
7.933006458,7.379803619,-7.493567047,1.478325806,10.62075778
7.942982458,7.336244202,-7.012766876,1.37129837,10.24108576
7.952958458,7.206314392,-6.706803131,1.238225098,9.921964359
7.962934458,7.031328278,-6.461762695,1.03554657,9.605535445
7.972910458,7.01471283,-6.33722168,0.9027726746,9.496397907
7.982886458,7.103178864,-6.353088684,0.8027806091,9.563542362
7.992862458,7.120991821,-6.47643219,0.5590873718,9.641850295
8.002838458,6.975045319,-6.574627991,0.1188528442,9.585985417
8.012814458,6.848408661,-6.792874146,-0.5694158936,9.662715705
8.022790458,6.749763794,-7.132966919,-1.184187469,9.891452285
8.032765458,6.580016785,-7.331454163,-1.509011993,9.966140588
8.042741458,6.418352966,-7.630232849,-1.669328613,10.10951859
8.052717458,6.19561615,-8.020770721,-1.567091217,10.2554472
8.062693458,5.90072937,-8.430917816,-1.164727936,10.35642668
8.072669458,5.510191498,-8.901838531,-0.7316784668,10.49477456
8.082645708,5.146747284,-9.183552704,-0.3559597778,10.53343986
8.092621708,4.807103577,-9.255552979,-0.1675016785,10.43079875
8.102597708,4.479584656,-9.421108704,-0.07454498291,10.43213904
8.112573708,4.250261536,-9.510173492,-0.08726852417,10.41708879
8.122549708,3.888613586,-9.416618042,-0.3790118408,10.19498215
8.132524708,3.542383575,-9.644593964,-0.8957373047,10.31353574
8.142500708,3.303779755,-9.661209412,-1.227297821,10.28397724
8.152476708,3.254532166,-9.536668396,-1.368454285,10.16920306
8.162452708,3.288810883,-9.495054932,-1.434616699,10.15039262
8.172428708,3.131937103,-9.410929871,-1.43686203,10.02193612
8.182404708,3.183879089,-9.056017914,-1.297202454,9.686654774
8.192380708,3.166066132,-8.873846741,-1.074016571,9.482754996
8.202356708,3.040327606,-8.897048492,-0.9885443115,9.454008868
8.212332708,2.903661804,-8.879534912,-0.8753796387,9.38315947
8.222308708,2.898422699,-8.796158295,-0.7852670288,9.294616678
8.232283708,2.902763672,-8.505462799,-0.7391629028,9.01749944
8.242259708,2.884501648,-8.296647034,-0.9678872681,8.836939941
8.252235708,2.680026855,-8.606053619,-1.362167358,9.116040959
8.262211708,2.505938873,-8.953331451,-1.731000366,9.457179071
8.272187708,2.336341553,-9.078471222,-1.893113251,9.563524944
8.282163708,2.149979095,-9.270671539,-1.941911774,9.712815361
8.292139708,2.093097382,-9.483079834,-1.815125427,9.879501005
8.302115708,2.218835907,-9.36886734,-1.37129837,9.725192401
8.312091708,2.640209656,-9.021888885,-0.8795709229,9.441336298
8.322067708,3.09960434,-8.78388382,-0.3450325012,9.32111632
8.332042708,3.320544891,-8.683292999,0.04909790039,9.296666407
8.342018708,3.367846527,-8.640781403,0.2035766602,9.27614882
8.351994708,3.29375061,-8.893156586,0.06676116943,9.483748425
8.361970708,3.242407379,-9.379944305,-0.09026229858,9.924953807
8.371946708,3.244802399,-9.690249023,-0.1704954529,10.22050573
8.381922708,3.106040955,-9.959089966,-0.2956352234,10.4363961
8.391898708,3.196902008,-9.948761444,-0.4312532043,10.45868137
8.401874708,3.490291901,-9.878108368,-0.433049469,10.48554693
8.411850708,3.930227051,-9.84278183,-0.3770658875,10.60515052
8.421826708,4.31762146,-9.801318054,-0.2589614868,10.71329789
8.431802708,4.53990921,-9.692344666,-0.08681945801,10.70326391
8.441777708,4.591252441,-9.45897995,0.05074447632,10.51448885
8.451753708,4.648882599,-9.422455902,0.1014889526,10.50738239
8.461729708,4.653672638,-9.694290619,-0.04415817261,10.75350592
8.471705708,4.864134979,-10.23152344,-0.2908451843,11.33262864
8.481681708,5.127886505,-10.95960938,-0.4384382629,12.10786875
8.491657708,5.311255188,-11.41331589,-0.4963677979,12.59839641
8.501633708,5.645210724,-11.72586594,-0.4668791199,13.02237736
8.511609708,5.915847931,-11.80954193,-0.3350033569,13.21267439
8.521585708,6.135441284,-11.6998201,-0.2339634705,13.21303027
8.531561708,6.408024445,-11.48965714,-0.09145980835,13.15611505
8.541536708,6.612798615,-11.25689117,0.1924996948,13.056943
8.551512708,6.66833313,-10.89150101,0.5754034424,12.78368296
8.561488708,6.674470367,-10.33885025,0.9361532593,12.34166772
8.571464708,6.65890274,-9.552984467,1.246757355,11.71131512
8.581440708,6.640041962,-8.705147552,1.432071991,11.04176532
8.591416708,6.599775696,-8.092172241,1.574425964,10.56026079
8.601392708,6.555318146,-7.551646271,1.60301651,10.12764629
8.611368708,6.552773438,-7.035519562,1.502725067,9.73116426
8.621344708,6.702162781,-6.759942627,1.274599457,9.604187318
8.631320708,6.879094849,-6.742728424,0.9009764099,9.67461064
8.641295708,6.995402985,-6.900799713,0.5397775269,9.841141162
8.651271708,7.040758667,-6.993307343,0.2291734314,9.926285844
8.661247708,7.018455048,-7.051985321,-0.03233276367,9.949384586
8.671223708,6.88358551,-7.256160736,-0.3118016052,10.00663971
8.681199708,6.650220795,-7.496860199,-0.393381958,10.02911256
8.691175708,6.591692505,-7.480843506,-0.1213975525,9.971367359
8.701151708,6.645131378,-7.226821747,0.2007325745,9.819624084
8.711127708,6.616540833,-7.293882294,0.3785627747,9.855082003
8.721103708,6.548282776,-7.359745331,0.4671784973,9.862257064
8.731079708,6.559060364,-7.220684509,0.5156776428,9.768596679
8.741055708,6.680308228,-6.928791504,0.5025050354,9.637799595
8.751030708,6.828500061,-6.562054138,0.4558021545,9.481388253
8.761006708,6.913373566,-6.276148682,0.5703140259,9.354679814
8.770982708,6.872358856,-6.077362061,0.6944059753,9.200317686
8.780958708,6.836283875,-6.003415833,0.8008346558,9.133297051
8.790934708,6.657405853,-6.098767548,1.025218048,9.086643513
8.800910708,6.272256775,-6.229296112,1.166973267,8.91667885
8.810886708,6.00835556,-6.44948822,1.211430817,8.897404086
8.820862708,5.714067535,-6.74677002,1.293310547,8.935442108
8.830838708,5.408552856,-6.973548431,1.288520508,8.918694233
8.840814708,5.205125885,-7.150031433,1.322499847,8.942331397
8.850789708,4.973557434,-7.103029175,1.359922028,8.777168389
8.860765708,4.703369293,-7.226672058,1.375938721,8.731533606
8.870741708,4.484674072,-7.521409149,1.500330048,8.884530791
8.880717708,4.146227875,-7.840844879,1.862127686,9.062978182
8.890693708,3.469485168,-8.385562134,2.337539063,9.371182876
8.900669708,2.838696899,-9.156309357,2.571951599,9.925277636
8.910645708,2.493963776,-9.568103027,2.721041565,10.25536533
8.920621708,1.822160797,-9.793833618,2.685415649,10.31750474
8.930597708,1.576671295,-9.784552917,2.507735138,10.22311614
8.940573708,1.917362823,-9.353748779,2.307301941,9.823061573
8.950549708,2.234253845,-8.83417923,2.290387115,9.395769582
8.960524708,2.755469971,-8.491691437,2.157313843,9.184521829
8.970500708,2.944975891,-8.274642792,1.850601654,8.975930192
8.980476708,3.067271576,-8.277935944,1.513802032,8.956783742
8.990452708,3.176993408,-8.489446106,1.274749146,9.153631393
9.000428708,3.142265625,-8.620573425,1.370400238,9.27718256
9.010404708,3.312761078,-8.752449188,1.482217712,9.475057894
9.020380708,3.415148163,-8.994196472,1.510209503,9.738559436
9.030356708,3.419788513,-9.043893127,1.388811951,9.768098843
9.040332708,3.600013733,-8.950637054,1.280137939,9.732047868
9.050308708,3.834875336,-8.816366272,1.053958282,9.671887672
9.060283708,4.357139282,-8.581804047,0.7509883118,9.653807894
9.070259708,5.089416504,-8.641978912,0.5501060486,10.04433057
9.080235708,5.63278656,-8.968000946,0.3634442139,10.59648135
9.090212083,5.998625793,-9.060059509,-0.01781295776,10.86593332
9.100188083,6.317013702,-9.146878967,-0.4203259277,11.12415079
9.110164083,6.549929352,-9.33264267,-0.6744973755,11.42167853
9.120140083,6.597081299,-9.563462677,-0.7723937988,11.643792
9.130116083,6.530020752,-9.830507355,-0.8327183533,11.83103824
9.140092083,6.491251373,-10.17060013,-0.7607180786,12.0895055
9.150068083,6.346203003,-10.14515305,-0.4796026611,11.97616139
9.160044083,6.228847046,-9.79592926,-0.1481918335,11.60951017
9.170019083,6.186934204,-9.463769989,0.2047741699,11.30853791
9.179995083,6.268364868,-9.063951416,0.5845344543,11.03581868
9.189971083,6.370153198,-8.541837158,0.9771679688,10.70031266
9.199947083,6.450086975,-8.006101227,1.215921478,10.35276504
9.209923083,6.542444916,-7.601492615,1.289867706,10.1118759
9.219899083,6.691385193,-7.416327667,1.178499298,10.05810183
9.229875083,6.836583252,-7.526648254,0.8782237244,10.20590914
9.239851083,6.926845551,-7.715405731,0.5339396667,10.38237769
9.249827083,6.945706329,-7.988437958,0.1445993042,10.58673162
9.259803083,6.811585236,-8.420140228,-0.2174977112,10.83253249
9.269779083,6.600524139,-8.617280273,-0.5544470215,10.86884767
9.279754083,6.261778564,-8.713530121,-0.9527687073,10.77233708
9.289730083,5.960604858,-8.926387482,-1.376387787,10.82144385
9.299706083,5.588478699,-8.946745148,-1.582958221,10.66682238
9.309682083,5.139861603,-8.81307312,-1.57966507,10.32394192
9.319658083,4.932991791,-8.662037201,-1.375938721,10.06272845
9.329634083,4.841082916,-8.479416962,-0.920735321,9.807361997
9.339610083,4.733307037,-8.295599213,-0.439486084,9.561083088
9.349586083,4.547543335,-8.345595245,-0.1193019104,9.504911537
9.359562083,4.247716827,-8.537196808,0.04236190796,9.535650062
9.369538083,3.955973511,-8.609346771,0.2016307068,9.476878874
9.379514083,3.642675018,-8.647517395,0.362845459,9.39043637
9.389489083,3.425027618,-8.599617004,0.3647914124,9.263762712
9.399465083,3.248694305,-8.492290192,0.3656895447,9.09982067
9.409441083,3.098556519,-8.440198517,0.4288581848,9.001217853
9.419417083,2.915786591,-8.361611938,0.3761677551,8.863400467
9.429393083,2.79648468,-8.270750885,0.2350112915,8.733892436
9.439369083,2.753374329,-8.21401886,0.1803749084,8.665085754
9.449345083,2.749183044,-8.106093292,0.1610650635,8.561115455
9.459321083,2.599494324,-8.060587921,0.1103205872,8.470101476
9.469297083,2.450404358,-8.172854462,-0.01526824951,8.532307114
9.479273083,2.336790619,-8.276738434,-0.002694396973,8.600290504
9.489249083,2.250569916,-8.260871429,0.06107299805,8.562172133
9.499224083,2.280058594,-8.312064972,0.04819976807,8.619246748
9.509200083,2.442321167,-8.344098358,0.103434906,8.694803556
9.519176083,2.654430084,-8.213420105,0.1362167358,8.632776141
9.529152083,2.917732544,-8.234226837,0.1001417542,8.736457129
9.539128083,3.20723053,-8.265062714,0.03128494263,8.865583347
9.549104083,3.392994232,-8.185128937,-0.01481918335,8.860528493
9.559080083,3.538192291,-8.123008118,-0.07050338745,8.860419646
9.569056083,3.735931091,-8.139024811,-0.1167572021,8.956256932
9.579032083,3.888613586,-8.319848785,-0.04805007935,9.183872182
9.589008083,3.893703003,-8.571325836,0.04490661621,9.414380822
9.598984083,4.035308533,-8.80723526,0.06586303711,9.687902034
9.608959083,4.191882935,-9.048084412,0.2067201233,9.974088794
9.618935083,4.272864532,-9.288634186,0.3754193115,10.2311796
9.628911083,4.406237183,-9.542506256,0.4514611816,10.52036924
9.638887083,4.62538147,-9.685458984,0.5041516113,10.74506577
9.648863083,4.772525482,-9.753118286,0.5204676819,10.87065786
9.658839083,4.889432373,-9.867480469,0.4360432434,11.02106408
9.668815083,5.19285141,-9.944121094,0.3745211792,11.22459426
9.678791083,5.688620453,-10.20637573,0.4043092346,11.69161983
9.688767083,6.14532074,-10.63598236,0.3954776001,12.29005656
9.698743083,6.430926819,-10.99179245,0.433049469,12.74220753
9.708719083,6.645580444,-11.3586795,0.6110293579,13.17409186
9.718694083,6.813980255,-11.68140839,0.7119195557,13.54224716
9.728670083,6.909032593,-11.71778275,0.8132588196,13.62727242
9.738646083,7.065307617,-11.5737822,0.9761201477,13.59499234
9.748622083,7.187603302,-11.37170242,1.189725952,13.50528434
9.758598083,7.227869568,-10.92413315,1.454225922,13.17928513
9.768574083,7.259304199,-10.14260834,1.740730133,12.59365486
9.778550083,7.232360229,-9.312285004,2.049537964,11.96771876
9.788526083,7.138206024,-8.63644043,2.219883728,11.42234531
9.798502083,7.13281723,-7.929011536,2.27931015,10.90603321
9.808478083,7.099885712,-7.172185364,2.391427002,10.37147738
9.818454083,7.017107849,-6.626869354,2.443668365,9.956240007
9.828430083,6.897506561,-6.312073975,2.279010773,9.623500648
9.838405083,6.87190979,-6.179599457,1.948498077,9.444958357
9.848381083,6.874155121,-6.313870239,1.660197601,9.480254327
9.858357083,6.824159088,-6.67881134,1.249900818,9.630052972
9.868333083,6.645580444,-7.033274231,0.8442443848,9.713054845
9.878309083,6.331832886,-7.336842957,0.4706213379,9.70272419
9.888285083,6.160289612,-7.659871216,0.1246907043,9.830480299
9.898261083,6.11373642,-7.915090485,-0.04805007935,10.00143686
9.908237083,6.195017395,-8.035440216,-0.03308120728,10.14631137
9.918213083,6.40742569,-7.95775177,0.116308136,10.21735997
9.928189083,6.738686829,-7.560627594,0.3347039795,10.13336156
9.938165083,6.951394501,-7.094047852,0.6137237549,9.951083221
9.948140083,6.944957886,-6.813082123,0.7432044983,9.757196368
9.958116083,6.907984772,-6.606362,0.7661068726,9.589118427
9.968092083,6.745722198,-6.40158783,0.8408015442,9.337667908
9.978068083,6.37464386,-6.432423706,0.8779243469,9.09851143
9.988044083,6.029761047,-6.605463867,0.9463320923,8.993648627
9.998020083,5.645210724,-6.842121735,1.095122681,8.937691404
10.00799608,5.182971954,-7.073390808,1.368903351,8.875243782
10.01797208,4.904101868,-7.19718338,1.607956238,8.856364209
10.02794808,4.527335358,-7.210505676,1.578317871,8.659055656
10.03792408,4.056414642,-7.321125641,1.154998169,8.449106531
10.04790008,3.708837433,-7.549550629,0.4607418823,8.423982009
10.05787508,3.533851318,-7.667655029,-0.2269281006,8.445859053
10.06785108,3.68698288,-7.541617126,-0.8708889771,8.439684784
10.07782708,4.028273163,-7.349566498,-1.265767822,8.476159541
10.08780283,4.335733795,-7.347321167,-1.448837128,8.65337188
10.09777883,4.666845245,-7.401508484,-1.581311646,8.891699438
10.10775483,4.924309845,-7.51317627,-1.428928528,9.096069582
10.11773083,5.005291443,-7.703580322,-0.8738827515,9.228313133
10.12770683,5.097499695,-7.916287994,-0.1151106262,9.416229033
10.13768283,5.055586853,-8.090375977,0.5233117676,9.554422907
10.14765883,4.846022644,-8.327632599,0.9605525208,9.682771365
10.15763483,4.579427032,-8.681197357,1.172960815,9.884845804
10.16761083,4.403842163,-8.919651489,1.287921753,10.03059076
10.17758583,4.449497223,-9.059011688,1.530866547,10.20819625
10.18756183,4.634213104,-9.19927002,1.792672119,10.4554375
10.19753783,4.820276184,-9.244026947,1.886077881,10.59454513
10.20751383,5.087919617,-9.161398773,1.92364975,10.65450993
10.21748983,5.300926666,-9.215137024,1.993404694,10.81629494
10.22746583,5.276078339,-9.396260376,2.025138702,10.96484831
10.23744183,5.223687286,-9.648635559,1.980531464,11.14924131
10.24741783,5.167853394,-9.861193542,2.010469208,11.31334757
10.25739383,5.122348022,-10.05369324,1.875899048,11.43827759
10.26736983,5.274282074,-10.4602478,1.784738617,11.84989989
10.27734583,5.265899506,-11.15375565,1.886676636,12.47780074
10.28732183,5.219945068,-11.76149185,1.884730682,13.00510388
10.29729683,5.264851685,-12.04395447,1.947300568,13.28786973
10.30727283,5.141208801,-12.07209595,2.01256485,13.27471076
10.31724883,4.709506531,-11.89381668,1.96690979,12.94260643
10.32722483,4.141138458,-11.65326691,1.917362823,12.51494856
10.33720083,3.67410965,-11.43112885,1.815574493,12.14356204
10.34717683,3.401676178,-11.16303635,1.726060638,11.79678205
10.35715283,3.241359558,-10.74779984,1.730700989,11.35856236
10.36712883,3.170257416,-10.35471725,1.773961029,10.97349713
10.37710483,3.141217804,-10.06057892,1.786385193,10.68988632
10.38708083,3.183280334,-9.540560303,1.642983398,10.19092533
10.39705683,3.34763855,-9.150471497,1.271306305,9.826191133
10.40703283,3.511697388,-8.702902222,0.7731422424,9.416489502
10.41700783,3.652554474,-8.360414429,0.2969824219,9.128301165
10.42698383,3.682342529,-8.313561859,-0.08487350464,9.092973155
10.43695983,3.720962219,-8.253686371,-0.4361929321,9.064169174
10.44693583,3.87768631,-8.128696289,-0.7259902954,9.035442235
10.45691183,4.052822113,-8.043373718,-0.8622070313,9.047907427
10.46688783,4.143533478,-8.080945587,-1.0086026,9.13716753
10.47686383,3.971990204,-8.278983765,-1.259630585,9.268492195
10.48683983,3.851640472,-8.474626923,-1.506766663,9.429993721
10.49681583,3.794309692,-8.786877594,-1.592089233,9.702615731
10.50679183,3.699107666,-9.168134766,-1.577569427,10.01133447
10.51676783,3.605252838,-9.342073059,-1.474134521,10.12152408
10.52674383,3.578458557,-9.411828003,-1.080752563,10.1269886
10.53671883,3.551813965,-9.484876099,-0.5173242188,10.14129584
10.54669483,3.516337738,-9.407337341,-0.07439529419,10.04331427
10.55667083,3.45406723,-9.363927612,0.2222877502,9.983142421
10.56664683,3.382815399,-9.329349518,0.3836521912,9.931132436
10.57662283,3.291205902,-9.250463562,0.397124176,9.826536522
10.58659883,3.240311737,-9.211843872,0.2924917603,9.769505571
10.59657483,3.27039917,-9.119336243,0.08277786255,9.688377388
10.60655083,3.36754715,-8.991053009,-0.05837860107,9.601188264
10.61652683,3.501368866,-8.771160278,-0.1016386414,9.444742822
10.62650283,3.419489136,-8.600964203,-0.3240760803,9.261453259
10.63647883,3.296744385,-8.613987122,-0.6024971008,9.242959506
10.64645483,3.306324463,-8.56623642,-0.6965016174,9.208545073
10.65642983,3.326233063,-8.386160889,-0.688717804,9.04797508
10.66640583,3.475921783,-8.242310028,-0.6318360901,8.967548366
10.67638183,3.661835175,-8.120912476,-0.6041436768,8.92878748
10.68635783,3.859424286,-8.034242706,-0.6135740662,8.934242263
10.69633383,4.026027832,-8.045619049,-0.6909631348,9.023209852
10.70630983,4.091292114,-8.01388504,-0.7152127075,9.026214811
10.71628583,4.164190521,-8.037835236,-0.7345225525,9.082224472
10.72626183,4.262536011,-8.048912201,-0.6792874146,9.133215877
10.73623783,4.360432434,-8.094118195,-0.5547463989,9.210638628
10.74621383,4.375401306,-8.227341156,-0.3415896606,9.32469638
10.75618983,4.308191071,-8.450826416,-0.02544708252,9.485653639
10.76616583,4.206552429,-8.659642181,0.2812651062,9.631385991
10.77614083,4.212090912,-8.804391174,0.5129832458,9.773544168
10.78611683,4.339476013,-8.862021332,0.6993457031,9.892196852
10.79609283,4.547543335,-8.83537674,0.8306227112,9.971658167
10.80606883,4.835095367,-8.759035492,0.8461903381,10.04066173
10.81604483,5.099146271,-8.692873077,0.8701405334,10.11555632
10.82602083,5.441035309,-8.623866577,0.853225708,10.23249403
10.83599683,5.705086212,-8.701854401,0.7223977661,10.43034694
10.84597283,5.846092987,-8.797655182,0.5843847656,10.57908528
10.85594883,5.933810577,-8.795858917,0.4899311829,10.62154766
10.86592483,5.98500412,-8.803942108,0.396076355,10.6530065
10.87590083,6.020929413,-8.868457947,0.3561094666,10.72510845
10.88587683,6.03529953,-8.878786469,0.392334137,10.74297983
10.89585183,6.047873383,-8.663534088,0.4843927002,10.57677794
10.90582783,6.187982025,-8.564739532,0.609382782,10.58381936
10.91580383,6.52328476,-8.696465607,0.569715271,10.88606144
10.92577983,6.865024109,-9.048383789,0.4812492371,11.36808718
10.93575583,7.005731506,-9.357640686,0.3891906738,11.69603277
10.94573183,7.021897888,-9.709858246,0.3426374817,11.9877353
10.95570783,7.010970612,-10.10159363,0.2902464294,12.29959941
10.96568383,7.117848358,-10.28870453,0.1832189941,12.51218507
10.97565983,7.363038483,-10.21086639,0.2086660767,12.59045947
10.98563583,7.616910553,-9.864187317,0.4001179504,12.46914641
10.99561183,7.654033356,-9.283694458,0.5116360474,12.04296396
11.00558783,7.694000244,-8.502618713,0.6271957397,11.48414295
11.01556383,7.603588257,-7.606881409,0.9586065674,10.7980612
11.02553883,7.510930939,-6.650220795,1.318308563,10.11817462
11.03551483,7.30600708,-6.068829803,1.697021027,9.648228594
11.04549083,7.005581818,-5.718857574,1.906435547,9.242186162
11.05546683,6.752907257,-5.704637146,1.794468384,9.020241581
11.06544283,6.360423431,-6.203250275,1.458866272,9.00353214
11.07541883,5.650749207,-6.849755859,0.9171427917,8.926996854
11.08539471,5.090913391,-7.574698334,0.3427871704,9.132959928
11.09537071,4.829856262,-8.24320816,0.0896635437,9.554372394
11.10534671,4.670288086,-8.741521912,0.05822891235,9.911063855
11.11532271,4.381538544,-9.243128815,-0.1558259583,10.23022932
11.12529871,4.067341919,-9.476343842,-0.5942642212,10.32944882
11.13527471,3.917952576,-9.247769165,-0.9482780457,10.08815237
11.14524971,4.016747131,-8.913364563,-0.9948312378,9.827106112
11.15522571,4.211941223,-8.616382141,-0.6004014587,9.609525065
11.16520171,4.292773132,-8.479866028,0.02903961182,9.504571127
11.17517771,4.270918579,-8.50187027,0.4981640625,9.527366427
11.18515371,4.067042542,-8.688232727,0.7237449646,9.620292601
11.19512971,3.869154053,-8.887468414,0.9589059448,9.740479891
11.20510571,3.63429245,-8.966054993,1.271455994,9.757808365
11.21508171,3.433859253,-9.055119781,1.421743469,9.788152947
11.22505771,3.235372009,-9.261989594,1.477427673,9.921435168
11.23503371,3.031495972,-9.436077576,1.591041412,10.03797493
11.24500971,3.026556244,-9.42036026,1.81362854,10.05944723
11.25498571,2.961890717,-9.188492432,2.06869812,9.873231573
11.26496071,2.344574432,-9.14538208,1.92364975,9.635116555
11.27493671,1.953886871,-9.494905243,1.493893433,9.80829328
11.28491271,1.704355774,-9.692045288,1.253343658,9.920254069
11.29488871,1.485810242,-9.607770538,1.234183502,9.800004883
11.30486471,1.270408173,-9.679471436,1.359472961,9.85668661
11.31484071,1.37249588,-9.720336456,1.557660828,9.939567044
11.32481671,1.615290985,-9.540709991,1.699865112,9.824655389
11.33479271,1.525926819,-9.512867889,1.589544525,9.764720167
11.34476871,1.627266083,-9.515711975,1.516047363,9.772162959
11.35474471,1.776505737,-9.307794342,1.569935303,9.604983342
11.36472071,1.742376709,-9.404642944,1.60541153,9.698480896
11.37469571,1.602268066,-9.526190186,1.538201294,9.781698504
11.38467171,1.676064606,-9.50223999,1.491348724,9.763497243
11.39464771,1.847308502,-9.338630219,1.623972931,9.657114017
11.40462371,1.92364975,-8.905131683,1.7106427,9.269740941
11.41459971,2.003433838,-8.73583374,1.583257599,9.101386867
11.42457571,1.87215683,-9.242080994,1.710043945,9.58359445
11.43455171,1.608255615,-9.958940277,1.939067688,10.27263165
11.44452771,1.162632294,-10.44842239,2.277064819,10.75668483
11.45450371,0.8175997925,-10.87548431,2.559228058,11.20242281
11.46447971,0.6912625122,-11.03131027,2.754871216,11.3910915
11.47445571,0.726738739,-10.82024918,2.903811493,11.22666748
11.48443171,1.015039215,-10.47446823,3.031346283,10.9514314
11.49440671,1.196461945,-10.20083725,2.936144257,10.68220693
11.50438271,1.444945221,-9.906249847,2.770438843,10.38734731
11.51435871,1.799707489,-9.902657318,2.428998871,10.35382077
11.52433471,2.290087738,-10.49976562,1.859433289,10.9062859
11.53431071,2.632425842,-11.22800125,1.286125488,11.60395608
11.54428671,2.761307831,-11.71853119,1.057251434,12.08580054
11.55426271,2.594853973,-12.03242844,1.1864328,12.3660917
11.56423871,2.402054901,-12.34153564,1.503323822,12.66267556
11.57421471,2.168091431,-12.37237152,1.885479126,12.70162309
11.58419071,2.139800262,-12.17942276,2.262095947,12.57116391
11.59416671,2.282752991,-12.01117264,2.504891052,12.48013255
11.60414271,2.434687042,-11.88678131,2.66550705,12.42289011
11.61411771,2.688259735,-11.60895905,2.655477905,12.20844926
11.62409371,2.931503906,-11.21078705,2.481240234,11.85040145
11.63406971,3.291954346,-10.60649368,2.107617188,11.3038366
11.64404571,3.74431366,-9.955347748,1.641336823,10.7621011
11.65402171,4.201463013,-9.256151733,1.15020813,10.2299372
11.66399771,4.681065674,-8.765472107,0.7288343811,9.963788268
11.67397371,5.034480743,-8.308622131,0.4294569397,9.72438334
11.68394971,5.416785736,-7.815697174,0.08262817383,9.509653908
11.69392571,5.662574615,-7.500901794,-0.170944519,9.399867075
11.70390171,5.825286255,-7.569608917,-0.3278182983,9.557217375
11.71387771,5.872887268,-7.756121063,-0.5098397827,9.742081678
11.72385371,5.93934906,-7.943531342,-0.759969635,9.947517845
11.73382871,5.930517426,-8.170908508,-0.9867480469,10.14438044
11.74380471,5.961502991,-8.227790222,-1.081800385,10.21794216
11.75378071,5.881718903,-8.170459442,-1.033899994,10.12027539
11.76375671,5.948480072,-8.173453217,-0.9461824036,10.15307903
11.77373271,5.875282288,-8.102051697,-0.822689209,10.04186244
11.78370871,5.815107422,-7.922425232,-0.6894662476,9.851683084
11.79368471,5.736820221,-7.822283478,-0.5460644531,9.715833029
11.80366071,5.689668274,-7.694898376,-0.4549040222,9.580747558
11.81363671,5.628894653,-7.534581757,-0.3062631226,9.410003951
11.82361271,5.524112549,-7.428302765,-0.2396516418,9.260288026
11.83358871,5.404361572,-7.524702301,-0.2555186462,9.267877778
11.84356471,5.27712616,-7.585176544,-0.2583627319,9.243901504
11.85353971,5.139861603,-7.581434326,-0.2662962341,9.16336387
11.86351571,5.000052338,-7.520660706,-0.2866539001,9.03565334
11.87349171,5.007087708,-7.329059143,-0.2674937439,8.88017951
11.88346771,4.931195526,-7.144193573,-0.1922003174,8.682921863
11.89344371,4.835394745,-7.13281723,-0.2656974792,8.621410507
11.90341971,4.795427856,-7.067552948,-0.2969824219,8.546030164
11.91339571,4.690795441,-6.837481384,-0.2652484131,8.296087648
11.92337171,4.526736603,-6.94091629,-0.3344046021,8.293340078
11.93334771,4.264781342,-7.258406067,-0.4424798584,8.430219864
11.94332371,3.926335144,-7.510631561,-0.512384491,8.490478902
11.95329971,3.839216309,-7.660020905,-0.5661227417,8.586966698
11.96327571,3.898792419,-7.766299896,-0.4402345276,8.70113802
11.97325171,4.01929184,-7.67229538,-0.1785786438,8.663181495
11.98322671,4.2520578,-7.601941681,0.1122665405,8.711034188
11.99320271,4.299060059,-7.763306122,0.2043251038,8.876518917
12.00317871,4.269122314,-8.015681305,0.193996582,9.083731986
12.01315471,4.284540253,-8.123157806,0.2832110596,9.188209098
12.02313071,4.327949982,-8.123457184,0.3366499329,9.210593946
12.03310671,4.455035706,-8.225395203,0.4888833618,9.367148783
12.04308271,4.49425415,-8.342451782,0.6725514221,9.499849868
12.05305871,4.452490997,-8.500523071,0.775537262,9.627306301
12.06303471,4.442611542,-8.689729614,0.8312214661,9.794852077
12.07301071,4.387376404,-8.884624329,0.90681427,9.950273026
12.08298671,4.352199554,-9.071735229,0.9562115479,10.10704514
12.09296238,4.447401581,-9.254954224,0.9997709656,10.31664192
12.10293738,4.475393372,-9.319170685,1.237476654,10.41188919
12.11291338,4.285737762,-9.287436676,1.484762421,10.33578965
12.12288938,4.053720245,-9.289981384,1.62292511,10.26500306
12.13286538,3.729494476,-9.313781891,1.803898773,10.19361138
12.14284138,3.616329803,-9.36886734,1.89550827,10.21990548
12.15281738,3.980522461,-9.721234589,1.80315033,10.65825089
12.16279338,4.41821228,-10.34738251,1.608554993,11.36557846
12.17276938,4.640949097,-11.10181366,1.473685455,12.12272345
12.18274538,4.529880066,-11.78783707,1.410217438,12.70675526
12.19272138,4.028123474,-12.04305634,1.49539032,12.78660146
12.20269738,3.628604279,-12.08167603,1.625170441,12.71907401
12.21267338,3.278482361,-12.08751389,1.797312469,12.65254009
12.22264838,3.077600098,-11.85474792,2.106269989,12.42751158
12.23262438,3.257975006,-11.27709915,2.558629303,12.01390654
12.24260038,3.573518829,-10.56488022,2.755919037,11.48833411
12.25257638,3.707939301,-9.915829926,2.567460938,10.89331688
12.26255238,3.769910431,-9.532327423,2.048939209,10.45349906
12.27252838,3.675905914,-9.512269135,1.465153198,10.30253475
12.28250437,3.563190308,-9.690548401,0.9780661011,10.37109766
12.29248037,3.409310303,-9.99606308,0.615819397,10.57940959
12.30245637,3.166365509,-10.45261368,0.4475692749,10.93084267
12.31243237,2.791994019,-10.88551346,0.3770658875,11.24419017
12.32240837,2.324366455,-11.25090363,0.4360432434,11.49676674
12.33238437,1.991758118,-11.26153152,0.6089337158,11.45251033
12.34235938,1.914668427,-10.80632812,0.9912387085,11.019312
12.35233537,2.007325745,-10.0753981,1.495090942,10.38163284
12.36231137,1.944007416,-9.638905792,1.625769196,9.966483592
12.37228737,1.767823792,-9.484277344,1.608105927,9.7807322
12.38226337,1.475631409,-9.280251617,1.529968414,9.520575691
12.39223937,1.220711517,-9.220974884,1.265318756,9.38709465
12.40221537,1.115779724,-9.317673798,0.9798623657,9.435260444
12.41219137,1.038690033,-9.325906677,0.9635462952,9.432912265
12.42216737,1.095272369,-9.176517334,0.9398954773,9.289321582
12.43214337,1.304986267,-8.974287872,0.8378077698,9.107291246
12.44211937,1.485211487,-8.756490784,0.6997947693,8.909079454
12.45209537,1.620829468,-8.480614471,0.5571414185,8.652070072
12.46207037,1.795665894,-8.203390961,0.4963677979,8.412277946
12.47204637,1.899250488,-8.058941345,0.4495152283,8.291908825
12.48202237,2.032174072,-8.163873138,0.3820056152,8.421667553
12.49199837,2.13306427,-8.249345398,0.5183720398,8.536414484
12.50197437,2.200124817,-8.445737,0.6695576477,8.753246833
12.51195037,2.205962677,-8.721912689,0.7316784668,9.026260891
12.52192637,2.299518127,-8.804989929,0.8357121277,9.138601974
12.53190237,2.487976227,-8.910969543,0.9675878906,9.302237915
12.54187837,2.601889343,-9.046737213,1.067430267,9.473789618
12.55185437,2.809806976,-8.853788452,1.123114471,9.356600414
12.56183037,3.07026535,-8.645571442,1.224004669,9.255842604
12.57180637,3.247347107,-8.584648132,1.437161407,9.290149606
12.58178237,3.337759094,-8.508007507,1.576820984,9.274329729
12.59175737,3.466341705,-8.450976105,1.674717407,9.286506358
12.60173337,3.529809723,-8.577463074,1.790875854,9.446674853
12.61170937,3.539090424,-8.709039459,1.929188232,9.596577336
12.62168537,3.528612213,-8.76981308,2.030826874,9.668763282
12.63166137,3.464844818,-9.07398056,1.994751892,9.915710158
12.64163737,3.428021393,-9.39700882,1.893562317,10.18040685
12.65161337,3.410956879,-9.584568787,1.902843018,10.34985011
12.66158937,3.58519455,-9.565258942,2.004032593,10.40980044
12.67156537,3.785478058,-9.376950531,2.111658783,10.33035083
12.68154138,3.835623779,-9.348659363,2.112856293,10.3234492
12.69151738,3.788471832,-9.403894501,2.122286682,10.35808145
12.70149338,3.766168213,-9.339528351,2.178120575,10.30315593
12.71146837,3.831731873,-9.156908112,2.274969177,10.18364473
12.72144437,4.013453979,-9.006620636,2.302811279,10.12570827
12.73142037,4.292024689,-9.546547852,2.056573334,10.66712453
12.74139638,4.683311005,-10.33840118,1.527573395,11.45204879
12.75137238,5.003944244,-10.85288132,1.072669373,11.99896289
12.76134838,5.338199158,-11.47453857,0.8011340332,12.68082101
12.77132438,5.580395508,-11.55267609,0.7545808411,12.85202439
12.78130038,6.112389221,-11.30494125,0.8476872253,12.87950202
12.79127638,6.491550751,-10.82952988,1.275647278,12.69039891
12.80125238,6.785689087,-10.55544983,1.728904724,12.66697316
12.81122838,6.895560608,-10.36190231,2.17168396,12.63463442
12.82120438,6.875502319,-9.970466309,2.461032257,12.35877867
12.83118038,6.719526672,-9.629475403,2.684068451,12.04504291
12.84115538,6.520740051,-9.149124298,2.681972809,11.5507361
12.85113138,6.468648376,-8.487200775,2.563718719,10.97490968
12.86110738,6.468348999,-7.879763947,2.377955017,10.46828012
12.87108338,6.54079834,-7.370522919,1.980681152,10.05135557
12.88105938,6.657256165,-6.975943451,1.407672729,9.744967377
12.89103538,6.774013367,-6.579268341,0.8367599487,9.48020022
12.90101138,7.01351532,-6.388415222,0.1835183716,9.488673521
12.91098738,7.130571899,-6.44948822,-0.3965254211,9.622795141
12.92096338,6.980134735,-6.566245422,-0.9984237671,9.635077057
12.93093938,6.878496094,-6.677613831,-1.574126587,9.715045522
12.94091538,6.757547607,-6.954687653,-1.950444031,9.891226513
12.95089138,6.671925659,-7.533234558,-2.072590027,10.27423206
12.96086638,6.287824402,-8.099207611,-1.970202942,10.44105355
12.97084238,5.774990845,-8.623417511,-1.62412262,10.50483808
12.98081838,5.394182739,-9.068891144,-1.014141083,10.60049415
12.99079438,5.276527405,-9.165590057,-0.2094145203,10.57797887
13.00077038,5.214556274,-8.8903125,0.3864962769,10.31400179
13.01074638,5.129084015,-8.821306,0.5918692017,10.22121576
13.02072238,4.89796463,-8.773854675,0.6788383484,10.07131595
13.03069838,4.600982208,-8.888216858,0.605640564,10.02677599
13.04067438,4.306095428,-9.149872742,0.463585968,10.12311913
13.05065038,4.150119781,-9.221274261,0.3902384949,10.11966794
13.06062638,4.074526978,-9.117390289,0.3228785706,9.991637821
13.07060238,4.137994995,-8.983269196,0.28081604,9.894492694
13.08057738,4.124073944,-8.910370789,0.3137475586,9.823498919
13.09055396,4.021836548,-8.906927948,0.3403921509,9.778773006
13.10052996,4.010609894,-8.860524445,0.518821106,9.739766963
13.11050596,3.830983429,-8.846304016,0.809815979,9.674157881
13.12048196,3.651356964,-8.820856934,1.070274353,9.60652965
13.13045796,3.488495636,-8.864116974,1.32803833,9.617996534
13.14043396,3.124452667,-8.850944366,1.373543701,9.486202768
13.15040996,2.532284088,-8.736432495,1.01444046,9.152420712
13.16038596,1.995949402,-9.119186554,0.5650749207,9.352148795
13.17036196,1.528471527,-9.66255661,0.4593946838,9.79348094
13.18033796,1.108894043,-9.886341248,0.4348457336,9.95783511
13.19031396,1.041983185,-9.989925842,0.5465135193,10.0589773
13.20028996,1.094224548,-9.739496613,0.8316705322,9.835994993
13.21026496,1.05306015,-9.512718201,1.103954315,9.634285566
13.22024096,0.929866333,-9.543105011,1.033600616,9.643849588
13.23021696,0.7047344971,-9.524842987,1.002465363,9.603344284
13.24019296,0.5170248413,-9.617649994,1.206940155,9.706864099
13.25016896,0.3924838257,-9.697583771,1.380279694,9.803180432
13.26014496,0.3059637451,-9.949659576,1.490749969,10.06537009
13.27012096,0.3067121887,-10.03767654,1.406624908,10.14039528
13.28009696,0.3264710999,-10.05129822,1.208586731,10.1289615
13.29007296,0.5677693176,-10.07285339,0.9451345825,10.13301618
13.30004896,0.8921447754,-10.09216324,0.9148974609,10.1727439
13.31002496,1.342408447,-10.19275406,1.210233307,10.35176122
13.31999996,1.709594879,-10.23541534,1.425934753,10.4747187
13.32997596,2.07109314,-10.22224274,1.408271484,10.52458559
13.33995196,2.375709686,-10.56727524,1.387913818,10.91959739
13.34992796,2.606679382,-11.36242172,1.248254242,11.72422891
13.35990396,2.806364136,-12.18526062,1.087488556,12.55144961
13.36987996,2.979553986,-12.8305687,1.19002533,13.22563402
13.37985596,2.965932312,-13.33037933,1.344204712,13.72234142
13.38983196,2.854414215,-13.75639343,1.493144989,14.12853576
13.39980796,2.822530518,-13.76971573,1.740131378,14.16332613
13.40978396,3.116818542,-13.33636688,2.060315552,13.84984258
13.41975996,3.534749451,-12.42416382,2.441123657,13.14585049
13.42973596,3.81915802,-11.52528305,2.647993469,12.42698623
13.43971196,4.007167053,-10.98191299,2.58467514,11.97248288
13.44968696,4.122577057,-10.47312103,2.471360779,11.52343394
13.45966296,4.225562897,-9.840536499,2.25940155,10.94515581
13.46963896,4.240232391,-9.334888,1.9481987,10.43624372
13.47961496,4.164489899,-9.183552704,1.472038879,10.19056008
13.48959096,3.995042267,-9.128467255,1.090033264,10.02384406
13.49956696,3.926335144,-9.064550171,0.756227417,9.907272953
13.50954296,3.871698761,-9.08685379,0.2820135498,9.881320496
13.51951896,3.833378448,-9.435029755,-0.1478924561,10.18510918
13.52949496,3.843407593,-9.70357132,-0.3817062378,10.44398286
13.53947096,3.989503784,-9.678722992,-0.3788621521,10.47555992
13.54944696,4.330794067,-9.617500305,-0.2951861572,10.55174034
13.55942296,4.622687073,-9.538614349,0.0209564209,10.59975654
13.56939796,4.896467743,-9.319020996,0.3144960022,10.53178315
13.57937396,5.161566467,-9.106013947,0.5060975647,10.47937943
13.58934996,5.437891846,-8.866661682,0.7328759766,10.42715034
13.59932596,5.715564423,-8.422684937,1.14437027,10.24299182
13.60930196,5.939498749,-7.973618774,1.541943512,10.06150245
13.61927796,5.991440735,-7.70852005,1.773511963,9.922902203
13.62925396,5.901627502,-7.512128448,1.841919708,9.729026119
13.63922996,5.820945282,-7.231611786,1.942660217,9.484384098
13.64920596,5.656886444,-6.986721039,2.06989563,9.224917508
13.65918196,5.458698578,-6.832541656,2.035766602,8.979162617
13.66915796,5.352868652,-6.673572235,1.940863953,8.772498052
13.67913396,5.208119659,-6.622827759,1.797911224,8.615035849
13.68910996,5.091212769,-6.575376434,1.60541153,8.469555413
13.69908496,5.024601288,-6.3780867,1.347647552,8.230599127
13.70906096,4.956941986,-6.462960205,1.094972992,8.218278063
13.71903696,4.771477661,-6.697672119,0.7726931763,8.259713411
13.72901296,4.590054932,-6.821315002,0.4390370178,8.233571287
13.73898896,4.555776215,-6.926396484,0.2034269714,8.292855221
13.74896496,4.568499756,-7.051386566,0.136665802,8.403089912
13.75894096,4.676125946,-7.117698669,0.3149450684,8.522146362
13.76891696,4.859494629,-7.178023224,0.7214996338,8.698233566
13.77889296,4.884043579,-7.251221008,1.06593338,8.807400398
13.78886896,4.92954895,-7.206164703,1.384321289,8.840000453
13.79884496,4.751119995,-7.19134552,1.708996124,8.786879955
13.80882096,4.409380646,-7.681127014,1.888023834,9.05577075
13.81879696,3.922293549,-8.47028595,2.148033142,9.578318074
13.82877196,3.429967346,-8.889264679,2.382445679,9.821392464
13.83874796,3.329825592,-9.176517334,2.609074402,10.10462657
13.84872396,3.210972748,-9.314979401,2.782114563,10.23813209
13.85869996,3.162922668,-9.377549286,2.634671173,10.24128911
13.86867596,3.201991425,-9.430688782,2.259700928,10.2125848
13.87865196,3.182232513,-9.371711426,1.922302551,10.08220343
13.88862796,3.290158081,-9.432185669,1.752405853,10.14210003
13.89860396,3.399580536,-9.514065399,1.79491745,10.26139936
13.90857996,3.417243805,-9.507030029,1.754052429,10.25367618
13.91855596,3.50675766,-9.544302521,1.619931335,10.29637011
13.92853196,3.453618164,-9.44026886,1.439556427,10.15472684
13.93850796,3.38386322,-9.282646637,1.225202179,9.955861553
13.94848396,3.28446991,-9.306147766,1.253643036,9.948052558
13.95845896,3.416495361,-9.540260925,1.316961365,10.21877714
13.96843496,3.857178955,-10.0263002,1.363963623,10.82889293
13.97841096,4.203408966,-10.52551208,1.39240448,11.4190123
13.98838696,4.425996094,-10.95496902,1.409768372,11.89908545
13.99836296,4.416266327,-11.54594009,1.439107361,12.44520674
14.00833896,4.199966125,-11.68395309,1.56903717,12.51464554
14.01831496,4.011508026,-11.45043869,1.917362823,12.28336367
14.02829096,3.981270905,-11.17007172,2.403252411,12.09944802
14.03826696,3.968247986,-10.78237793,2.761008453,11.81650683
14.04824296,4.010909271,-10.29723679,2.967878265,11.44241146
14.05821896,3.954177246,-9.937085724,2.820734253,11.06063887
14.06819496,4.015250244,-9.713001709,2.488275604,10.80074776
14.07816996,4.229005737,-9.548344116,2.174677734,10.6669859
14.08814546,4.425996094,-9.182953949,1.777254181,10.34769139
14.09812146,4.695735168,-8.704099731,1.250200195,9.968664978
14.10809746,4.884642334,-8.511001282,0.676892395,9.836414838
14.11807346,4.911586304,-8.494236145,0.5572911072,9.82783298
14.12804946,4.976251831,-8.451125793,0.5291496277,9.821639822
14.13802546,4.916526031,-8.545878754,0.6186634827,9.878614093
14.14800146,4.807552643,-8.737180939,0.6613247681,9.994410619
14.15797746,4.578079834,-8.911717987,0.5905220032,10.03624674
14.16795346,4.102069702,-9.261989594,0.2737806702,10.13342898
14.17792946,3.450325012,-9.566306763,-0.1146615601,10.17015806
14.18790546,2.922073517,-9.658964081,-0.362845459,10.09780954
14.19788146,2.543061676,-9.714648285,-0.3201841736,10.04709271
14.20785746,2.3834935,-9.576186218,-0.05298980713,9.868494904
14.21783246,2.390079803,-9.440717926,0.1359173584,9.739512819
14.22780846,2.497556305,-9.409582672,0.06167175293,9.735596385
14.23778446,2.663261719,-9.24253006,0.043409729,9.618690623
14.24776046,2.644101562,-9.048832855,-0.09071136475,9.427665547
14.25773646,2.545007629,-9.085506592,-0.2091151428,9.437543272
14.26771246,2.326761475,-9.154662781,-0.05029541016,9.445856193
14.27768846,2.017654266,-9.170380096,0.06227050781,9.389924253
14.28766446,1.571881256,-9.340276794,-0.1025367737,9.47217478
14.29764046,1.217418365,-9.525890808,-0.2239343262,9.605979895
14.30761646,1.110540619,-9.428144073,-0.173638916,9.49491188
14.31759246,0.9919871521,-9.326505432,-0.1320254517,9.380041194
14.32756846,0.9349557495,-9.364526367,-0.1707948303,9.412633383
14.33754446,0.9069639587,-9.318122864,-0.1619631958,9.363558587
14.34752046,1.071322174,-9.196126556,-0.09011260986,9.258757753
14.35749546,1.342258759,-9.07637558,0.01930984497,9.175108997
14.36747146,1.622775421,-8.951984253,0.1799258423,9.099659084
14.37744746,1.784289551,-8.975934448,0.2541714478,9.155091018
14.38742346,1.907782745,-9.069190521,0.1390608215,9.268721035
14.39739946,2.039359131,-9.028175812,0.1335223389,9.256606958
14.40737546,2.22078186,-9.034013672,0.1422042847,9.304058101
14.41735146,2.382745056,-9.113648071,0.07948471069,9.420317032
14.42732746,2.512375488,-9.198671265,0.1133143616,9.53626886
14.43730346,2.672243042,-9.225615234,0.1134640503,9.60550537
14.44727946,2.956352234,-9.170679474,0.183817749,9.637176428
14.45725546,3.229534149,-9.196425934,0.3294648743,9.752573398
14.46723146,3.520379333,-9.237290955,0.4366419983,9.895012434
14.47720746,3.84250946,-9.298813019,0.4728666687,10.07255704
14.48718346,4.103865967,-9.34776123,0.577199707,10.22523914
14.49715846,4.375850372,-9.517957306,0.8072712708,10.50672474
14.50713446,4.627626801,-9.655221863,0.9801617432,10.7516955
14.51711046,4.876259766,-9.684111786,1.043480072,10.89260212
14.52708646,5.227429504,-9.718540192,1.10919342,11.09082291
14.53706246,5.619015198,-9.789941711,1.127006378,11.34400431
14.54703846,6.028713226,-9.877359924,1.088835754,11.62295941
14.55701446,6.463109894,-10.12195129,0.9946815491,12.05052193
14.56699046,6.6846492,-10.38166122,0.9150471497,12.38146744
14.57696646,6.935527496,-10.70798264,0.8360115051,12.78520039
14.58694246,7.162006531,-11.00541412,0.7631130981,13.15278751
14.59691846,7.13281723,-10.99164276,0.9958790588,13.14096904
14.60689446,7.030879211,-10.72624466,1.152603149,12.87688165
14.61687046,6.971153412,-10.2134111,1.060245209,12.41107836
14.62684546,6.997199249,-9.597591705,1.252445526,11.94333218
14.63682146,7.097191315,-8.940458221,1.657802582,11.53474001
14.64679746,7.172185364,-8.24680069,1.908680878,11.0947297
14.65677346,7.199428711,-7.642507324,1.923799438,10.67430074
14.66674946,7.221133575,-7.134463806,1.862876129,10.320642
14.67672546,7.156767426,-6.791377258,1.810934143,10.03103223
14.68670146,7.015461273,-6.495442657,1.76797348,9.722818646
14.69667746,6.7934729,-6.342011719,1.600172424,9.430426209
14.70665346,6.562802582,-6.343957672,1.263372803,9.214786352
14.71662946,6.339616699,-6.395001526,0.8945397949,9.049142824
14.72660546,6.165379028,-6.658004608,0.5652246094,9.091776657
14.73658146,6.186335449,-6.976392517,0.2537223816,9.327656399
14.74655746,6.235882416,-7.256310425,0.2094145203,9.569959505
14.75653346,6.193520508,-7.604037323,0.2320175171,9.80993945
14.76650846,6.198909302,-8.179141388,0.1546284485,10.26395345
14.77648446,6.153703308,-8.736282806,0.1293310547,10.68678755
14.78646046,5.968388672,-9.038204956,0.1927990723,10.83272743
14.79643646,5.87154007,-9.026828613,0.4438270569,10.77755074
14.80641246,5.819897461,-8.884175262,0.9265731812,10.66106535
14.81638846,5.782924347,-8.69960907,1.583556976,10.56565496
14.82636446,5.757626953,-8.471633148,2.289938049,10.49583978
14.83634046,5.54147644,-8.352780304,2.747985535,10.39366752
14.84631646,5.128784637,-8.330626373,3.101999359,10.26285378
14.85629246,4.755760345,-8.335266724,3.253484344,10.13306904
14.86626846,4.451143799,-8.353528748,3.266956329,10.01334746
14.87624446,4.182302856,-8.58494751,3.261268158,10.09102824
14.88622046,3.920497284,-8.770860901,3.2235466,10.13358538
14.89619546,3.696862335,-8.803343353,2.981499939,10.00274898
14.90617146,3.487896881,-8.678952026,2.622546387,9.714287544
14.91614746,3.341351624,-8.697363739,2.141746216,9.560117339
14.92612346,3.290457458,-8.656648407,1.759291534,9.426546485
14.93609946,3.331023102,-8.433462524,1.59837616,9.207269487
14.94607546,3.551065521,-8.225245514,1.689087524,9.116893482
14.95605146,3.473526764,-8.198151855,1.8194664,9.087658665
14.96602746,2.972967682,-8.14381485,1.718426514,8.83816988
14.97600346,2.385289764,-8.586444397,1.489702148,9.035255787
14.98597946,1.460063782,-9.242080994,1.123413849,9.423900786
14.99595546,1.100511475,-9.380243683,1.423240356,9.551215115
15.00593146,1.31980545,-9.451345825,1.745669861,9.701401321
15.01590746,1.148411865,-9.726623383,1.792372742,9.956839473
15.02588346,1.350940704,-9.469607849,1.982477417,9.768762988
15.03585846,1.452579346,-9.22726181,2.011666718,9.555058883
15.04583446,1.395697632,-9.289232941,1.698218536,9.54577219
15.05581046,1.271755371,-9.277706909,1.822011108,9.540069795
15.06578646,1.478625183,-9.615704041,2.26059906,9.987912932
15.07576246,1.814376984,-9.632618866,2.55548584,10.12965043
15.08573846,2.066003723,-9.636061707,2.838247833,10.25561833
15.09571475,2.208956451,-9.885443115,2.844385071,10.5210266
15.10569075,2.14473999,-10.18077896,2.61161911,10.7270091
15.11566675,2.17288147,-10.35456757,2.270628204,10.821009
15.12564275,2.481240234,-10.24634262,2.008822632,10.73216933
15.13561875,2.739752655,-10.08677444,1.864073639,10.61715752
15.14559475,2.996917877,-9.91418335,1.733694763,10.50134495
15.15557075,3.263962555,-9.772877197,1.783690796,10.45677451
15.16554575,3.507057037,-10.05249573,1.8194664,10.8010452
15.17552175,3.68458786,-10.67520081,1.704655151,11.42111856
15.18549775,3.653901672,-11.40957367,1.507215729,12.0748113
15.19547375,3.508703613,-12.03796692,1.307680664,12.60689007
15.20544975,3.232228546,-12.37237152,1.292262726,12.85273595
15.21542575,2.971021729,-12.35560638,1.384620667,12.78300253
15.22540175,2.783162384,-12.15936447,1.582958221,12.57385756
15.23537775,2.805166626,-11.86402863,1.893113251,12.33726115
15.24535375,2.98374527,-11.56510025,2.205214233,12.14566793
15.25532975,3.225193176,-11.10914841,2.313439178,11.7969085
15.26530575,3.606600037,-10.62400726,2.286046143,11.45002625
15.27528175,3.992497559,-10.19170624,2.085163879,11.14265773
15.28525775,4.258793793,-9.710307312,1.80075531,10.75500406
15.29523375,4.493056641,-9.248068542,1.352437592,10.37031423
15.30520875,4.747377777,-8.803493042,0.9792636108,10.04977824
15.31518475,4.886438599,-8.435707855,0.6888674927,9.773074625
15.32516075,5.119204559,-8.170160065,0.3320095825,9.647175813
15.33513675,5.326523438,-8.035889282,0.07514373779,9.641214398
15.34511275,5.495372314,-7.847880249,-0.1416055298,9.581669656
15.35508875,5.753735046,-7.663912811,-0.4366419983,9.593314484
15.36506475,5.757926331,-7.636220398,-0.7506889343,9.593180467
15.37504075,5.789061584,-7.681725769,-1.126856689,9.684624454
15.38501675,5.920338593,-7.788154449,-1.309925995,9.87024138
15.39499275,6.089935913,-8.03379364,-1.356030121,10.17192103
15.40496875,6.214476929,-8.142916718,-1.295855255,10.32502092
15.41494475,6.388265533,-8.221652985,-1.109941864,10.47079201
15.42492075,6.565047913,-8.205336914,-0.8363108826,10.54167083
15.43489575,6.70815033,-8.050109711,-0.4652325439,10.48904135
15.44487175,6.790778503,-7.865393829,-0.05658233643,10.39145295
15.45484775,6.81218399,-7.694149933,0.2201921082,10.27882671
15.46482375,6.798412628,-7.544610901,0.4873864746,10.16745364
15.47479975,6.641089783,-7.47799942,0.734223175,10.02814203
15.48477575,6.519991608,-7.3774086,0.8180488586,9.879557285
15.49475175,6.364614716,-7.319928131,0.8545729065,9.737554271
15.50472775,6.141428833,-7.373816071,0.795894928,9.629317748
15.51470375,5.911656647,-7.395221558,0.5694158936,9.484788909
15.52467975,5.76032135,-7.254663849,0.2800675964,9.267679724
15.53465575,5.634433136,-7.043153687,0.09235794067,9.020054357
15.54463175,5.628894653,-6.866820374,-0.04460723877,8.879170393
15.55460775,5.517825623,-6.789281616,-0.1697470093,8.750403334
15.56458375,5.461692352,-6.832841034,-0.3350033569,8.753857846
15.57455875,5.417234802,-6.962920532,-0.2764750671,8.826388486
15.58453475,5.471122742,-7.059320068,-0.03577560425,8.931319263
15.59451075,5.505551147,-6.993307343,0.1914518738,8.902476894
15.60448675,5.451513519,-7.047644348,0.2709365845,8.914129074
15.61446275,5.384452972,-7.270680542,0.199385376,9.04957921
15.62443875,5.361550598,-7.425608368,0.2134561157,9.161410806
15.63441475,5.49237854,-7.472460938,0.2957849121,9.278544239
15.64439075,5.61527298,-7.576494598,0.527353363,9.445245503
15.65436675,5.682932281,-7.706873474,0.8050259399,9.609354028
15.66434275,5.64446228,-7.903863831,1.0086026,9.764645262
15.67431875,5.511389008,-8.037835236,1.070274353,9.804473023
15.68429475,5.458848267,-8.138725433,1.076561279,9.858846802
15.69427075,5.406157837,-8.204289093,1.154100037,9.892868592
15.70424675,5.490432587,-8.338709564,1.091081085,10.04337519
15.71422175,5.55674469,-8.642577667,1.055754547,10.32890013
15.72419775,5.490432587,-8.902437286,1.053958282,10.51232932
15.73417375,5.307063904,-9.098828888,1.016685791,10.58240353
15.74414975,5.148244171,-9.463171234,0.9725276184,10.81673878
15.75412575,4.853956146,-10.12000534,0.965791626,11.26535183
15.76410175,4.613106995,-10.76336746,0.833915863,11.73994254
15.77407775,4.38902298,-11.37873779,0.9012757874,12.22912485
15.78405375,4.217180328,-11.92585007,1.22505249,12.70870817
15.79402975,4.008514252,-12.25007584,1.54448822,12.98144785
15.80400575,3.908971252,-12.29588058,1.801054688,13.02737631
15.81398175,3.854185181,-12.07958038,2.021246796,12.83964346
15.82395775,3.88112915,-11.72856033,2.139500885,12.53793264
15.83393375,3.742218018,-11.33577713,2.231858826,12.14434982
15.84390975,3.522924042,-11.10974716,2.34951416,11.88939412
15.85388575,3.378175049,-10.86231171,2.530188446,11.653486
15.86386075,3.060834961,-10.63044388,2.655178528,11.3765118
15.87383675,2.787802734,-10.27343628,2.534978485,10.94264378
15.88381275,2.578687592,-9.813742218,2.27347229,10.39845384
15.89378875,2.441273346,-9.370364227,1.955533447,9.878646282
15.90376475,2.321522369,-8.984317017,1.459015961,9.393409708
15.91374075,2.219135284,-8.804391174,0.9334588623,9.127607069
15.92371675,2.16000824,-8.814869385,0.6716532898,9.100476691
15.93369275,2.092798004,-8.869805145,0.5242098999,9.128419514
15.94366875,1.884431305,-9.10556488,0.3616479492,9.305545786
15.95364475,1.682501221,-9.448352051,0.3640429688,9.603889531
15.96362075,1.451082458,-9.773326263,0.4872367859,9.892469168
15.97359675,1.1864328,-10.0647702,0.5959107971,10.15196196
15.98357275,1.008153534,-10.3116069,0.7939489746,10.39114842
15.99354875,0.9366023254,-10.37851776,1.058748322,10.47434021
16.00352375,1.01444046,-10.28077103,1.471739502,10.43500645
16.01349975,1.198108521,-10.16625916,1.97274765,10.4249711
16.02347575,1.391805725,-9.918674011,2.372566223,10.29302132
16.03345175,1.471440125,-9.659263458,2.573598175,10.10395537
16.04342775,1.498683472,-9.710606689,2.645897827,10.17559383
16.05340375,1.299597473,-9.514364777,2.547851715,9.934970511
16.06337975,1.250499573,-9.609117737,2.425406342,9.989068464
16.07335575,1.248852997,-9.676028595,2.329306183,10.03049503
16.08333175,1.318308563,-9.593101044,2.251767426,9.941628722
16.09330808,1.505269775,-9.594897308,2.059417419,9.928196793
16.10328408,1.674567719,-9.5432547,1.829495544,9.860270851
16.11326008,1.971400452,-9.319170685,1.646725616,9.666698881
16.12323608,2.327958984,-9.00497406,1.51754425,9.424006123
16.13321208,2.612966309,-8.854387207,1.351240082,9.330252703
16.14318808,2.914289703,-8.787027283,1.21098175,9.336563058
16.15316308,3.212769012,-8.783734131,1.209335175,9.430713736
16.16313908,3.34060318,-8.971743164,1.273701324,9.657852767
16.17311508,3.476819916,-9.072034607,1.390907593,9.814515402
16.18309108,3.565435638,-9.136999512,1.568438416,9.932627569
16.19306708,3.585643616,-9.293274536,1.763931885,10.11598969
16.20304308,3.728895721,-9.317524109,1.910926208,10.21628885
16.21301908,3.961511993,-9.235195312,2.046095123,10.25518966
16.22299508,4.232448578,-9.130862274,2.112556915,10.28344123
16.23297108,4.48841629,-9.049880676,2.042652283,10.30624322
16.24294708,4.713398438,-8.953630829,1.924098816,10.29979544
16.25292308,4.964875488,-8.826395416,1.836530914,10.29213731
16.26289908,5.199587402,-8.761430511,1.827549591,10.3507638
16.27287508,5.346881104,-8.694669342,1.903890839,10.38321785
16.28285108,5.526507568,-8.595126343,1.983375549,10.40923923
16.29282708,5.648952942,-8.491841125,2.086660767,10.41038847
16.30280308,5.697003021,-8.502918091,2.224673767,10.47399794
16.31277808,5.734275513,-8.478369141,2.392325134,10.51132144
16.32275408,5.78846283,-8.419840851,2.553390198,10.53184805
16.33273008,5.795947266,-8.411907349,2.619402924,10.54582674
16.34270608,5.708079987,-8.50770813,2.643652496,10.5807454
16.35268208,5.546116791,-8.500523071,2.603086853,10.47828064
16.36265808,5.385201416,-8.687484283,2.45833786,10.51266867
16.37263408,5.219196625,-8.886719971,2.436632996,10.59013624
16.38261008,5.173840942,-8.85992569,2.381697235,10.53277718
16.39258608,5.250631256,-8.574618988,2.269580383,10.30748342
16.40256208,5.318889313,-8.365803223,2.202968903,10.1553099
16.41253808,5.336702271,-8.276139679,2.058818665,10.06049767
16.42251408,5.376818848,-8.050409088,1.854044495,9.856812284
16.43249008,5.584736481,-8.093070374,1.618135071,9.965211023
16.44246608,5.789660339,-8.478818207,1.359173584,10.35653793
16.45244208,5.899831238,-9.042246552,1.066382446,10.84930426
16.46241708,5.808820496,-9.485325165,0.9713301086,11.16500207
16.47239308,5.677393799,-9.677375793,1.047072601,11.26857416
16.48236908,5.637277222,-9.637708282,1.325044556,11.24366748
16.49234508,5.624403992,-9.244026947,1.74926239,10.96110731
16.50232108,5.640720062,-8.886121216,2.074386292,10.72771884
16.51229708,5.660329285,-8.66682724,2.259102173,10.59512929
16.52227308,5.627248077,-8.397836609,2.362986145,10.38139124
16.53224908,5.678740997,-8.035440216,2.356399841,10.11775761
16.54222508,5.607788544,-7.890391846,2.155667267,9.917281744
16.55220108,5.547164612,-7.983049164,1.758842468,9.878949135
16.56217708,5.498366089,-7.970774689,1.318907318,9.772655489
16.57215308,5.473517761,-7.911348267,0.9472302246,9.666750911
16.58212908,5.515430603,-7.840096436,0.6668632507,9.60894341
16.59210508,5.520819397,-7.895930328,0.5532495117,9.650453232
16.60208108,5.422773285,-8.190966797,0.4492158508,9.833626088
16.61205708,5.290298767,-8.571924591,0.4165837097,10.08160177
16.62203208,5.118605804,-8.806337128,0.492026825,10.19773452
16.63200808,4.85006424,-9.207203522,0.4864883423,10.41788802
16.64198408,4.540957031,-9.733059998,0.5905220032,10.7564615
16.65196008,4.32465683,-10.22463776,0.795894928,11.13010884
16.66193608,4.018543396,-10.58598633,0.9607022095,11.36374702
16.67191208,3.587140503,-10.88506439,1.02267334,11.50643579
16.68188808,3.228636017,-11.09911926,1.091829529,11.61062577
16.69186408,3.087928619,-11.08459946,1.241967316,11.57350989
16.70184008,3.082090759,-10.94613739,1.309476929,11.44691823
16.71181608,3.023263092,-10.78881454,1.067280579,11.25512003
16.72179208,3.00829422,-10.67939209,0.9333091736,11.13419577
16.73176808,2.928210754,-10.34423904,0.9386979675,10.79161033
16.74174408,2.648592224,-10.26774811,0.7364685059,10.62939687
16.75172008,2.13066925,-10.5969136,0.4683760071,10.81913608
16.76169608,1.595532074,-10.86515579,0.2412982178,10.98433238
16.77167208,1.301393738,-10.75468552,0.302820282,10.8373699
16.78164708,1.329984283,-10.31639694,0.4981640625,10.41369634
16.79162308,1.525028687,-9.921069031,0.8138575745,10.0705356
16.80159908,1.547481995,-9.296867065,1.143621826,9.493909028
16.81157508,1.191073151,-9.170529785,1.056952057,9.307761248
16.82155108,0.7455995178,-9.51511322,0.7999365234,9.577744864
16.83152708,0.3483256531,-9.749825134,0.5908213806,9.773918908
16.84150308,-0.07200027466,-9.955198059,0.2670446777,9.959039376
16.85147908,-0.31943573,-10.04965164,0.02035766602,10.05474772
16.86145508,-0.3106040955,-9.868228912,0.06122268677,9.873305677
16.87143108,-0.1890568542,-9.540410614,0.1044827271,9.542855643
16.88140708,-0.05882766724,-9.610315247,0.1056802368,9.611076326
16.89138308,0.1877096558,-9.617350616,0.1706451416,9.620695794
16.90135908,0.5125341797,-9.497749329,0.3588038635,9.518333562
16.91133508,0.7825726318,-9.447453918,0.5396278381,9.495156853
16.92131108,0.9933343506,-9.523795166,0.8343649292,9.611740338
16.93128708,1.153201904,-9.70237381,1.039438477,9.825800961
16.94126208,1.273851013,-9.701325989,1.131197662,9.849773119
16.95123808,1.354682922,-9.756561127,1.270557861,9.931765609
16.96121408,1.542542267,-9.891730042,1.369651794,10.10453888
16.97119008,1.795516205,-9.884994049,1.380130005,10.14109189
16.98116608,2.08740921,-10.11222153,1.235680389,10.39909647
16.99114208,2.454296265,-10.27074188,1.157842255,10.62319668
17.00111808,2.735860748,-10.3541185,1.080902252,10.76387726
17.01109408,2.929707642,-10.48479675,0.9813592529,10.93056338
17.02107008,3.030597839,-10.51009415,0.9348060608,10.9781813
17.03104608,3.002156982,-10.49632278,0.9189390564,10.95582893
17.04102208,2.811154175,-10.63867676,0.9577084351,11.04541699
17.05099808,2.762205963,-10.65634003,1.148112488,11.06822148
17.06097408,2.876268768,-10.53239777,1.406774597,11.00833046
17.07095008,3.028951263,-10.5744603,1.545985107,11.10782725
17.08092608,3.077450409,-11.04478226,1.421294403,11.55326767
17.09090496,3.134481812,-11.74727142,1.19930603,12.21727044
17.10087996,3.234473877,-12.14454529,1.086440735,12.61475941
17.11085596,3.480262756,-12.22612564,1.067879333,12.75659607
17.12083196,3.652255096,-12.22313187,1.141675873,12.8080968
17.13080796,3.825444946,-12.33435059,1.190175018,12.96868343
17.14078396,4.155358887,-12.26998444,1.199605408,13.00994153
17.15075996,4.487518158,-11.94725555,1.496438141,12.84967165
17.16073596,4.812791748,-11.26796814,1.84057251,12.39022912
17.17071196,5.059628448,-10.80228653,1.963466949,12.08902133
17.18068796,5.117857361,-10.51787796,1.940714264,11.85683738
17.19066396,5.129982147,-9.978250122,1.935924225,11.38551689
17.20063996,5.209616547,-9.33608551,2.004930725,10.87760748
17.21061596,5.243446198,-8.831185455,1.936373291,10.4514643
17.22059196,5.239254913,-8.507109375,1.792971497,10.15063785
17.23056796,5.214705963,-8.028255157,1.675316162,9.718679097
17.24054396,5.053341522,-7.933951263,1.4438974,9.516758003
17.25051996,4.780159607,-8.248896332,1.006956024,9.586875247
17.26049496,4.574936371,-8.427175598,0.7957452393,9.621878291
17.27047096,4.560715942,-8.506809998,0.8458909607,9.689245469
17.28044696,4.550537109,-8.508755951,0.988843689,9.699697297
17.29042296,4.596341858,-8.350834351,1.148112488,9.60109135
17.30039896,4.686454468,-8.18123703,1.261576538,9.512469195
17.31037496,4.729265442,-8.032147064,1.257235565,9.405422869
17.32035096,4.70022583,-7.823031921,1.282233582,9.216076945
17.33032696,4.732857971,-7.539222107,1.388512573,9.009316385
17.34030296,4.718338165,-7.325466614,1.583257599,8.856177549
17.35027896,4.609364777,-7.322622528,1.781146088,8.833998286
17.36025496,4.510270844,-7.276219025,2.010020142,8.793525308
17.37023096,4.365072784,-7.153324585,2.231559448,8.672010759
17.38020696,4.212390289,-7.18311264,2.238744507,8.622836895
17.39018296,4.054169312,-7.222780151,2.169738007,8.562278023
17.40015896,3.931873627,-7.404651947,1.964065704,8.610810343
17.41013496,3.694916382,-7.594756622,1.803300018,8.636239122
17.42010996,3.493135986,-7.465275879,1.732048187,8.422133571
17.43008596,3.288511505,-7.511529694,1.554517365,8.345891833
17.44006196,3.030148773,-7.808961182,1.276246033,8.47292631
17.45003796,2.66311203,-8.084388428,1.016386414,8.572195943
17.46001396,2.407743073,-8.386310577,0.7464976501,8.756979533
17.46998996,2.187401276,-8.555159454,0.5620811462,8.848243489
17.47996596,2.109563141,-8.459208984,0.6566844177,8.742980482
17.48994196,2.286794586,-8.461154938,0.933608551,8.814317744
17.49991796,2.203717346,-8.692873077,1.254391479,9.055159329
17.50989396,2.013163605,-8.962761841,1.404229889,9.292781559
17.51986996,1.901495819,-9.097032623,1.661844177,9.441049463
17.52984596,1.996248779,-9.026678925,2.044897614,9.468238899
17.53982196,2.060614929,-9.079219666,2.239343262,9.575647334
17.54979796,2.041155396,-9.102720795,2.265089722,9.599816283
17.55977396,2.123484192,-8.903335419,2.183808746,9.409972759
17.56974996,2.288590851,-8.957971802,1.917961578,9.442535862
17.57972496,2.53437973,-9.217082977,1.562001801,9.685945945
17.58970096,2.717449036,-9.163644104,1.319057007,9.648669023
17.59967696,2.826422424,-9.082063751,1.117276611,9.577100434
17.60965296,2.921175385,-9.115893402,0.9636959839,9.620888114
17.61962896,2.92641449,-9.162147217,0.8967851257,9.659868889
17.62960496,2.721041565,-9.326206055,1.017434235,9.768180946
17.63958096,2.506238251,-9.641749878,1.227597198,10.03750795
17.64955696,2.488125916,-10.02510269,1.268761597,10.40688284
17.65953296,2.636018372,-10.7880661,1.019978943,11.15218903
17.66950896,2.807561646,-11.47992737,0.743354187,11.84160927
17.67948496,2.965483246,-11.82151703,0.6174659729,12.20342657
17.68946096,3.073558502,-12.13361801,0.6891668701,12.53580468
17.69943696,3.254981232,-12.28330673,0.7948471069,12.73209759
17.70941296,3.388204193,-12.06296494,1.004261627,12.56994798
17.71938896,3.532354431,-11.69128784,1.186732178,12.27078125
17.72936396,3.831582184,-11.42139908,1.288969574,12.11572621
17.73933996,4.025279388,-11.20105728,1.398092651,11.98420717
17.74931596,4.11748764,-11.06394241,1.374591522,11.88503378
17.75929196,4.168381805,-10.93745544,1.206491089,11.76685851
17.76926796,4.270918579,-10.69016968,0.918639679,11.54834932
17.77924396,4.340823212,-10.29813492,0.5433700562,11.18881495
17.78921996,4.362378387,-9.843829651,0.01975891113,10.76715923
17.79919596,4.351301422,-9.369017029,-0.4110452271,10.33833944
17.80917196,4.355193329,-8.953181763,-0.6709048462,9.978841913
17.81914796,4.344116364,-8.609197083,-0.7084767151,9.669103404
17.82912396,4.384382629,-8.323591003,-0.6021977234,9.426962413
17.83909996,4.427492981,-8.072563019,-0.4872367859,9.219889776
17.84907596,4.553231506,-7.809410248,-0.3671864319,9.047299677
17.85905196,4.619094543,-7.733817444,-0.2302212524,9.011157999
17.86902796,4.65337326,-7.808512115,-0.1992356873,9.092108612
17.87900296,4.680017853,-7.894433441,-0.2062710571,9.179716456
17.88897896,4.683460693,-7.951165466,-0.1751358032,9.229653779
17.89895496,4.703219604,-8.109536133,-0.1321751404,9.375623777
17.90893096,4.698728943,-8.233777771,-0.0802331543,9.480484556
17.91890696,4.806355133,-8.134983215,-0.006586303711,9.448758911
17.92888296,5.017116852,-8.00340683,0.0896635437,9.446376127
17.93885896,5.319937134,-7.91793457,0.1728904724,9.540718531
17.94883496,5.604944458,-7.83844986,0.1935475159,9.63816161
17.95881096,5.817801819,-7.672145691,-0.0209564209,9.628555275
17.96878696,5.958808594,-7.444918213,-0.1957928467,9.53795271
17.97876296,6.070775757,-7.49910553,-0.2853067017,9.652580067
17.98873896,6.269861755,-7.666756897,-0.3079096985,9.908841311
17.99871496,6.146667938,-7.548802185,-0.2471360779,9.737916482
18.00869096,6.204597473,-7.59969635,-0.3034190369,9.815522275
18.01866696,6.121370544,-7.771389313,-0.3782633972,9.899936989
18.02864196,5.941594391,-7.896379395,-0.3141966248,9.887065842
18.03861796,5.759572906,-8.021219788,-0.2489323425,9.877986346
18.04859396,5.723198547,-8.085885315,-0.1890568542,9.908192844
18.05856996,5.745502167,-8.114775238,-0.07050338745,9.943105302
18.06854596,5.680537262,-8.135881348,0.1371148682,9.923702403
18.07852196,5.553152161,-8.048912201,0.337098999,9.784483751
18.08849796,5.431155853,-7.917485504,0.603993988,9.620230733
18.09847108,5.280269623,-7.849826202,0.8271798706,9.496591243
18.10844708,5.115013275,-7.809260559,0.9367520142,9.382186079
18.11842308,4.840783539,-7.863298187,1.102457428,9.299465363
18.12839908,4.519551544,-8.01388504,1.127006378,9.269241769
18.13837508,4.463567963,-8.126151581,1.110690308,9.337634145
18.14835108,4.388274536,-8.143365784,1.249152374,9.334438459
18.15832708,4.385280762,-8.150999908,1.331032104,9.350996382
18.16830208,4.208947449,-8.147856445,1.265468445,9.257657029
18.17827808,4.107159119,-8.157286835,1.294208679,9.224156364
18.18825408,4.09533371,-8.12630127,1.134640503,9.17038383
18.19823008,4.06838974,-8.030799866,0.98989151,9.056788987
18.20820608,4.093537445,-8.004155273,0.9265731812,9.037814355
18.21818208,4.251159668,-7.994425507,0.7060816956,9.081946326
18.22815808,4.318519592,-8.028704224,0.7083270264,9.143928595
18.23813408,4.487518158,-8.006999359,0.7776329041,9.21165408
18.24811008,4.5493396,-7.922125854,0.7301815796,9.164591316
18.25808608,4.537214813,-7.931256866,0.6659651184,9.161586286
18.26806208,4.59259964,-7.936046906,0.6818321228,9.194438916
18.27803808,4.625082092,-7.977360992,0.8101153564,9.256671089
18.28801408,4.463717651,-8.054001617,0.8988807678,9.252010806
18.29799008,4.246519318,-8.188871155,0.8613088989,9.264577169
18.30796508,3.989054718,-8.436605988,0.8009843445,9.366453654
18.31794108,3.775149536,-8.587641907,0.688717804,9.406044852
18.32791708,3.720363464,-8.625363464,0.5945635986,9.412306044
18.33789308,3.779041443,-8.643775177,0.6017486572,9.452941605
18.34786908,3.909719696,-8.606652374,0.6256988525,9.473746474
18.35784508,3.963158569,-8.498577118,0.5953120422,9.396107455
18.36782108,4.018244019,-8.414601746,0.535436554,9.340155236
18.37779708,4.070186005,-8.367000732,0.4159849548,9.313761799
18.38777308,4.167633362,-8.310867462,0.3516188049,9.303941186
18.39774908,4.16898056,-8.285570068,0.2871029663,9.279735901
18.40772508,4.168531494,-8.607251129,0.1484912109,9.564699496
18.41770108,4.342020721,-9.463320923,-0.04385879517,10.41198878
18.42767708,4.330943756,-10.53120026,-0.264200592,11.39004191
18.43765308,4.023183746,-11.33742371,-0.5951623535,12.04480809
18.44762808,3.841012573,-11.83498901,-0.7214996338,12.46358312
18.45760408,3.957769775,-12.18645813,-0.4784051514,12.82195675
18.46758008,4.424648895,-12.13631241,-0.01392105103,12.91773163
18.47755608,4.862189026,-11.85040695,0.4701722717,12.81772558
18.48753208,5.206024017,-11.64069305,0.8129594421,12.77768852
18.49750808,5.279221802,-11.51719986,1.129401398,12.7197336
18.50748408,5.424270172,-11.2113858,1.40063736,12.5331426
18.51746008,5.651048584,-10.69585785,1.752106476,12.22315844
18.52743608,5.831124115,-10.24649231,2.097588043,11.97466027
18.53741208,5.933660889,-9.75850708,2.321372681,11.65442247
18.54738808,5.931415558,-9.25884613,2.288141785,11.23136301
18.55736408,6.024372253,-8.80259491,2.099234619,10.87131658
18.56734008,6.208639069,-8.425678711,1.88622757,10.63471275
18.57731508,6.454727325,-8.109685822,1.547032928,10.47968606
18.58729108,6.698570251,-7.766299896,1.178499298,10.32352256
18.59726708,6.901548157,-7.659871216,0.8541238403,10.34574896
18.60724308,6.984326019,-7.626041565,0.5204676819,10.35413958
18.61721908,7.068900146,-7.546706543,0.169896698,10.34171136
18.62719508,7.164102173,-7.655380554,-0.1130149841,10.4853223
18.63717108,7.239395599,-7.701634369,-0.4206253052,10.57832436
18.64714708,7.512577515,-7.766299896,-0.7801776123,10.83341646
18.65712308,7.750881958,-7.927065582,-0.9514215088,11.12743199
18.66709908,7.780071259,-8.003556519,-0.8723858643,11.19586901
18.67707508,7.891439667,-8.055199127,-0.688717804,11.29758316
18.68705108,7.902965698,-8.028255157,-0.3540138245,11.2709837
18.69702708,7.81150589,-7.925419006,0.196690979,11.12971599
18.70700308,7.693102112,-7.921078033,0.8529263306,11.07496188
18.71697808,7.426955566,-7.998467102,1.330882416,10.99574431
18.72695408,7.108567657,-7.999514923,1.637295227,10.82611236
18.73693008,6.827003174,-7.952662354,1.919308777,10.65535344
18.74690608,6.469995575,-7.853269043,2.193688202,10.40898388
18.75688208,6.197113037,-7.730673981,2.202819214,10.14987402
18.76685808,6.023923187,-7.709567871,2.046244812,9.995609294
18.77683408,5.910309448,-7.676636353,1.948348389,9.882234813
18.78681008,5.925877075,-7.554939423,1.760638733,9.761812206
18.79678608,6.018833771,-7.475754089,1.557211761,9.723073981
18.80676208,6.096971283,-7.436535645,1.369801483,9.713468861
18.81673808,6.103258209,-7.347321167,1.1373349,9.619065431
18.82671408,6.063141632,-7.317233734,0.9208850098,9.547336025
18.83669008,5.972430267,-7.339537354,0.7566764832,9.492696728
18.84666508,5.870641937,-7.48967514,0.6716532898,9.539957474
18.85664108,5.715265045,-7.67109787,0.5854325867,9.583982908
18.86661708,5.537883911,-8.001909943,0.5046006775,9.744400586
18.87659308,5.262157288,-8.359216919,0.4710704041,9.888817631
18.88656908,5.064268799,-8.61413681,0.3534150696,9.998753606
18.89654508,4.971761169,-8.816066895,0.4308041382,10.13050032
18.90652108,4.99047226,-8.8504953,0.6484515381,10.18118705
18.91649708,5.043611755,-8.691675568,0.7825726318,10.07946743
18.92647308,5.158572693,-8.554261322,0.9148974609,10.03111641
18.93644908,5.160518646,-8.481362915,0.9240284729,9.97087249
18.94642508,5.10513382,-8.420289917,0.6566844177,9.868885855
18.95640108,5.061275024,-8.29589859,0.4098477173,9.726582824
18.96637708,5.042114868,-8.470585327,0.4086502075,9.866140741
18.97635308,5.044360199,-8.600066071,0.2682421875,9.973898942
18.98632808,4.939428406,-8.609197083,0.1005908203,9.926043819
18.99630408,4.768184509,-8.772956543,-0.06017486572,9.985187581
19.00628008,4.556075592,-8.888665924,-0.352666626,9.994527526
19.01625608,4.429139557,-8.993448029,-0.5851332092,10.04200008
19.02623208,4.445006561,-8.953630829,-0.7918533325,10.02759293
19.03620808,4.619842987,-8.778644714,-0.6378236389,9.940541798
19.04618408,4.864134979,-8.658444672,-0.4611909485,9.941889675
19.05616008,4.947661285,-8.520281982,-0.3561094666,9.859075576
19.06613608,4.935087433,-8.408614197,-0.2231858826,9.752419834
19.07611208,4.89452179,-8.398135986,-0.0975970459,9.720831074
19.08608808,4.84063385,-8.493787079,0.01691482544,9.776320429
19.09606396,4.747527466,-8.54752533,0.0853225708,9.777856935
19.10603896,4.591551819,-8.647367706,0.1480421448,9.791896284
19.11601496,4.449497223,-8.691825256,0.3106040955,9.769458876
19.12599096,4.332141266,-8.623716888,0.4782554626,9.66253948
19.13596696,4.230951691,-8.641230469,0.4363426208,9.63131409
19.14594296,4.187841339,-8.690927124,0.4007167053,9.655609936
19.15591896,4.264481964,-8.785530396,0.4014651489,9.774074126
19.16589496,4.330943756,-8.996591492,0.336051178,9.990428553
19.17587096,4.339775391,-9.191186829,0.1683998108,10.16562464
19.18584696,4.308041382,-9.292226715,0.05403762817,10.24244199
19.19582296,4.33049469,-9.465416565,-0.0007484436035,10.4090007
19.20579896,4.28483963,-9.5432547,-0.1013392639,10.46154054
19.21577496,4.43467804,-9.449250183,-0.2221380615,10.44050016
19.22575096,4.712350616,-9.433682556,-0.2321672058,10.54772566
19.23572596,5.198838959,-9.531129913,-0.2061213684,10.85876834
19.24570196,5.586233368,-9.537267151,-0.3115022278,11.05723752
19.25567796,5.769003296,-9.565109253,-0.5379812622,11.18311843
19.26565396,5.707780609,-9.666448517,-0.6429130554,11.24421289
19.27562996,5.627846832,-9.854307861,-0.7668553162,11.37401031
19.28560596,5.457201691,-9.796528015,-0.6551875305,11.23308872
19.29558196,5.250631256,-9.554181976,-0.2353106689,10.90444372
19.30555796,5.192701721,-9.306596832,0.4326004028,10.66602264
19.31553396,5.056634674,-9.032666473,1.09287735,10.40927465
19.32550996,4.900060272,-8.689280548,1.602717133,10.10360774
19.33548596,4.923860779,-8.24560318,1.953437805,9.800525294
19.34546196,5.070256348,-7.837102661,2.221230927,9.594870733
19.35543796,5.253026276,-7.420219574,2.306104431,9.37934226
19.36541296,5.503605194,-7.073241119,2.135908356,9.213170712
19.37538896,5.687123566,-6.885681152,1.428329773,9.044119931
19.38536496,5.915548553,-6.778054962,0.6381230164,9.019032362
19.39534096,6.071374512,-6.701863403,0.08592132568,9.043447573
19.40531696,6.312672729,-6.700516205,-0.4246669006,9.215589855
19.41529296,6.500083008,-6.700516205,-0.8747808838,9.376205955
19.42526896,6.679410095,-6.70815033,-1.196461945,9.541767197
19.43524496,6.824009399,-6.683002625,-1.234183502,9.630827445
19.44522096,7.036567383,-6.644832001,-1.12790451,9.743676998
19.45519696,7.322323151,-6.545588379,-0.9386979675,9.866220017
19.46517296,7.551496582,-6.547684021,-0.6932084656,10.01887242
19.47514896,7.532635803,-6.592890015,-0.4279600525,10.01947856
19.48512496,7.541317749,-6.641089783,-0.1727407837,10.05014359
19.49509996,7.616012421,-6.756200409,0.1342707825,10.18174434
19.50507596,7.718249817,-6.814129944,0.4882846069,10.3073842
19.51505196,7.785310364,-6.823111267,0.7927514648,10.38240626
19.52502796,7.7529776,-6.841672668,1.025218048,10.39077565
19.53500396,7.766000519,-6.894213409,1.179996185,10.45147519
19.54497996,7.797584839,-6.916517029,1.248254242,10.49755571
19.55495596,7.805368652,-6.779252472,1.155746613,10.40277819
19.56493196,7.8219841,-6.665638733,1.034498749,10.32881226
19.57490796,7.853718109,-6.620732117,0.9086105347,10.31215569
19.58488396,7.859855347,-6.458319855,0.7093748474,10.19757001
19.59485996,7.951764221,-6.225853271,0.5610333252,10.11467061
19.60483596,8.14141983,-5.971532135,0.4733157349,10.10771689
19.61481196,8.269403687,-5.752387848,0.4772076416,10.084678
19.62478696,8.317453766,-5.679339752,0.5111869812,10.08445583
19.63476296,8.372239838,-5.619314575,0.4415817261,10.09287326
19.64473896,8.401728516,-5.578748932,0.3589535522,10.09159697
19.65471496,8.437653809,-5.654940491,0.3653901672,10.16394922
19.66469096,8.308921509,-5.869893494,0.3793112183,10.18026047
19.67466696,8.026159515,-5.960155792,0.4555027771,10.007506
19.68464296,7.994275818,-6.601122894,0.4784051514,10.37844597
19.69461896,7.791896667,-6.763684845,0.7454498291,10.34489158
19.70459496,7.522007904,-6.698270874,0.9647438049,10.11820964
19.71457096,7.50374588,-6.844666443,1.295106812,10.23879693
19.72454696,7.363936615,-6.888225861,1.4040802,10.18070033
19.73452296,7.33055603,-6.828799438,1.43925705,10.12131485
19.74449796,7.293283539,-6.79586792,1.406774597,10.06751312
19.75447396,7.274871826,-6.763385468,1.265468445,10.01341867
19.76444996,7.290289764,-6.694528656,1.175804901,9.967324412
19.77442596,7.33295105,-6.588399353,1.237027588,9.935261164
19.78440196,7.42530899,-6.471043396,1.262923737,9.929984522
19.79437796,7.459438019,-6.377038879,1.231040039,9.890667318
19.80435396,7.457042999,-6.339616699,1.065184937,9.845448143
19.81432996,7.255412292,-6.348598022,0.8171507263,9.675403852
19.82430596,7.066804504,-6.426436157,0.6598278809,9.574663462
19.83428196,6.910080414,-6.512507172,0.5367837524,9.510525631
19.84425796,6.825655975,-6.570436707,0.559536438,9.490695393
19.85423396,6.754254456,-6.705605621,0.6292913818,9.538401734
19.86420996,6.663543091,-6.848857727,0.4923262024,9.56828322
19.87418496,6.595285034,-6.872807922,0.3585044861,9.532145555
19.88416096,6.647975464,-6.852899323,0.4525090027,9.558377022
19.89413696,6.819668427,-6.819069672,0.6402186584,9.665271262
19.90411296,6.976542206,-6.721921692,0.6917115784,9.712612279
19.91408896,7.119644623,-6.608307953,0.6409671021,9.734983944
19.92406496,7.07788147,-6.591243439,0.5897735596,9.689619653
19.93404096,6.961423645,-6.658603363,0.4559518433,9.643977913
19.94401696,6.874903564,-6.691385193,0.2481838989,9.596902108
19.95399296,6.835834808,-6.67177597,0.08247848511,9.552383725
19.96396896,6.814129944,-6.641239471,0.007334747314,9.515171171
19.97394496,6.76892395,-6.630461884,-0.07888595581,9.475630809
19.98392096,6.687792664,-6.657106476,-0.1317260742,9.437212994
19.99389596,6.626569977,-6.747219086,-0.2210902405,9.459665742
20.00387196,6.547384644,-6.812333679,-0.406255188,9.457334672
20.01384796,6.521488495,-6.788383484,-0.528999939,9.428244982
20.02382396,6.492598572,-6.774312744,-0.6113287354,9.403130978
20.03379996,6.394402771,-6.870562592,-0.6679110718,9.409522959
20.04377596,6.331234131,-6.961423645,-0.7252418518,9.437792143
20.05375196,6.224356384,-7.057374115,-0.6896159363,9.435290771
20.06372796,6.081104279,-7.173382874,-0.6475534058,9.426376637
20.07370396,6.030808868,-7.237150269,-0.5920188904,9.439146465
20.08367996,5.957162018,-7.296427002,-0.4549040222,9.430406352
20.09365558,5.958359528,-7.265740814,-0.4043092346,9.40513178
20.10363158,6.002368011,-7.262447662,-0.3775149536,9.429426564
20.11360758,6.037993927,-7.236551514,-0.2772235107,9.42878048
20.12358258,6.150559845,-7.279212799,-0.1487905884,9.530921468
20.13355858,6.256838837,-7.473957825,-0.1267863464,9.748033267
20.14353458,6.389912109,-7.68980896,-0.1411564636,9.999203156
20.15351058,6.505920868,-7.754025421,-0.1115180969,10.12246773
20.16348658,6.658303986,-7.835456085,-0.07200027466,10.2826343
20.17346258,6.876849518,-7.941735077,-0.05777984619,10.50550112
20.18343858,7.153174896,-8.067024536,0.02859054565,10.7817259
20.19341458,7.446115723,-8.252488861,0.06391708374,11.1154081
20.20339058,7.825426941,-8.286168823,-0.08158035278,11.39756798
20.21336658,8.211474152,-8.116421814,-0.2628533936,11.5487533
20.22334258,8.390950928,-7.881410522,-0.4408332825,11.52037427
20.23331858,8.395591278,-7.434440002,-0.5135820007,11.2258905
20.24329358,8.431965637,-6.858587494,-0.443228302,10.87817624
20.25326958,8.583600311,-6.365063782,-0.09669891357,10.68651402
20.26324558,8.799750824,-6.053262177,0.4281097412,10.68928789
20.27322158,9.004524994,-5.982160034,0.7336244202,10.83540095
20.28319758,9.174122314,-6.274951172,0.7280859375,11.13865529
20.29317358,9.20855072,-6.71862854,0.47271698,11.40880525
20.30314958,9.204509125,-7.081024933,0.07708969116,11.61334771
20.31312558,9.317973175,-7.291337585,-0.2772235107,11.83490941
20.32310158,9.520801392,-7.201075287,-0.4448748779,11.9456711
20.33307758,9.754914551,-6.862778778,-0.3968247986,11.93371528
20.34305358,9.880503387,-6.455475769,-0.3414399719,11.80737464
20.35302958,9.77602066,-6.028563538,-0.2249821472,11.48759223
20.36300558,9.678423615,-5.744154968,-0.1240919495,11.25533646
20.37298058,9.460626526,-5.706882477,-0.06661148071,11.04881889
20.38295658,9.269773407,-5.790408783,-0.1038839722,10.93015667
20.39293258,9.078022156,-6.126310272,-0.09639953613,10.95223524
20.40290858,8.997339935,-6.506968689,-0.03457809448,11.10378148
20.41288458,8.90558075,-6.87190979,0.0592767334,11.24882333
20.42286058,8.655001831,-7.417974243,0.04580474854,11.39901297
20.43283658,8.364605713,-7.963290253,-0.05972579956,11.54920723
20.44281258,7.963889008,-8.330626373,-0.05433700562,11.5250083
20.45278858,7.538323975,-8.544681244,0.0940045166,11.39503149
20.46276458,7.082970886,-8.718469849,0.2186952209,11.23512442
20.47274058,6.731202393,-8.668623505,0.3393443298,10.98040408
20.48271658,6.553970947,-8.454568634,0.5339396667,10.71071228
20.49269158,6.386020203,-8.26895462,0.6668632507,10.4690769
20.50266758,6.241121521,-8.041128387,0.7252418518,10.20476944
20.51264358,6.068380737,-7.86419632,0.7529342651,9.961814018
20.52261958,5.890849915,-7.683072968,0.7788304138,9.712790524
20.53259558,5.725892944,-7.514373779,0.7020401001,9.473358623
20.54257158,5.593418427,-7.362888794,0.606688385,9.266419583
20.55254758,5.417833557,-7.250023499,0.5528004456,9.067598884
20.56252358,5.229225769,-7.20421875,0.4725672913,8.914532505
20.57249958,5.005740509,-7.158414001,0.382155304,8.743361581
20.58247558,4.767735443,-7.168293457,0.3727249146,8.617114146
20.59245158,4.519252167,-7.143594818,0.38963974,8.462056854
20.60242758,4.347110138,-7.317233734,0.3146456909,8.516940647
20.61240258,4.164489899,-7.240892487,0.2800675964,8.357747183
20.62237858,4.091591492,-7.135062561,0.2811154175,8.229779132
20.63235458,4.04848114,-7.092251587,0.292641449,8.171650453
20.64233058,4.037104797,-7.101382599,0.3106040955,8.174614662
20.65230658,4.049528961,-7.05917038,0.3379971313,8.145232551
20.66228258,4.059558105,-7.007078705,0.3680845642,8.106457317
20.67225858,4.146976318,-6.98776886,0.4640350342,8.138897636
20.68223458,4.197870483,-6.988666992,0.5047503662,8.168130499
20.69221058,4.203558655,-7.011868744,0.5465135193,8.193588083
20.70218658,4.115541687,-7.202871552,0.6080355835,8.317977473
20.71216258,4.055666199,-7.308252411,0.6253994751,8.381533638
20.72213858,3.996539154,-7.338639221,0.6794371033,8.383888454
20.73211358,4.001478882,-7.384743347,0.7062313843,8.428821407
20.74208958,4.032763824,-7.420069885,0.7030879211,8.474370407
20.75206558,4.169130249,-7.418123932,0.688717804,8.537244398
20.76204158,4.332889709,-7.41363327,0.6406677246,8.610827291
20.77201758,4.486170959,-7.484585724,0.536484375,8.742572208
20.78199358,4.638554077,-7.540868683,0.3996688843,8.862314576
20.79196958,4.755910034,-7.63247818,0.300125885,8.997970825
20.80194558,4.95993576,-7.810607758,0.1972897339,9.254484293
20.81192158,5.107229462,-7.950566711,0.1520837402,9.450842993
20.82189758,5.312452698,-8.0303508,0.2474354553,9.631713863
20.83187358,5.563181305,-8.071814575,0.3264710999,9.808657408
20.84184958,5.697751465,-8.180787964,0.3272195435,9.974805065
20.85182458,5.806275787,-8.373886414,0.3144960022,10.19478886
20.86180058,6.000422058,-8.6328479,0.2565664673,10.51650865
20.87177658,6.265969849,-9.004075928,0.1953437805,10.97150494
20.88175258,6.587052155,-9.498048706,0.1637594604,11.55980114
20.89172858,6.929689636,-9.943971405,0.173638916,12.12160535
20.90170458,7.338190155,-10.32552795,0.2013313293,12.66910007
20.91168058,7.673941956,-10.58164536,0.2520758057,13.07379615
20.92165658,8.114924927,-10.76471466,0.3956272888,13.48657144
20.93163258,8.566086731,-11.0070607,0.6282435608,13.96165882
20.94160858,8.886869659,-11.34700378,0.9348060608,14.44315788
20.95158458,9.265731812,-11.97644485,1.16772171,15.18725095
20.96156058,9.2658815,-12.18780533,1.472487946,15.38074704
20.97153558,9.183253326,-12.07374252,1.775457916,15.27284031
20.98151158,9.132658539,-11.69802383,2.078727264,14.98567051
20.99148758,9.010662231,-11.29790588,2.328408051,14.63749279
21.00146358,8.909921722,-10.85422852,2.506387939,14.26474543
21.01143958,8.749305725,-10.3382515,2.687511292,13.80769755
21.02141558,8.647367706,-9.836345215,2.853067017,13.40412798
21.03139158,8.521180115,-9.399104462,2.923720093,13.01928625
21.04136758,8.449329529,-8.922794952,2.938539276,12.63496942
21.05134358,8.370144196,-8.392597504,2.888842621,12.20001715
21.06131958,8.317304077,-7.871231689,2.731070709,11.7725351
21.07129558,8.225844269,-7.388335876,2.488275604,11.33329327
21.08127158,8.164771271,-6.914421387,2.208806763,10.92481306
21.09124758,8.155640259,-6.462511139,1.971101074,10.59073924
21.10122283,8.037685547,-6.122568054,1.768721924,10.25761209
21.11119883,7.980354767,-5.812562714,1.596579895,10.00105069
21.12117483,7.961943054,-5.534590759,1.434167633,9.802095127
21.13115083,8.003556519,-5.340893555,1.343605957,9.715314605
21.14112683,8.123008118,-5.257816315,1.18882782,9.748907881
21.15110283,8.191864929,-5.25721756,0.9698332214,9.781899814
21.16107883,8.155939636,-5.307363281,0.6355783081,9.751482766
21.17105483,8.10983551,-5.37651947,0.3150947571,9.735280084
21.18103083,8.161478119,-5.451214142,0.07170089722,9.81481542
21.19100683,8.192014618,-5.601052551,-0.1228944397,9.924514911
21.20098283,8.103548584,-5.700595551,-0.2080673218,9.909973829
21.21095883,8.012537842,-5.766608276,-0.2573149109,9.875259219
21.22093483,8.031548309,-5.917943573,-0.3243754578,9.981635328
21.23090983,8.031697998,-6.069877625,-0.416434021,10.07596171
21.24088583,8.002957764,-6.121819611,-0.4450245667,10.08573523
21.25086183,8.015681305,-6.116580505,-0.483943634,10.09444923
21.26083783,7.993078308,-6.196663971,-0.460891571,10.12424645
21.27081383,7.921676788,-6.305787048,-0.3552113342,10.13124319
21.28078983,7.955955505,-6.441255341,-0.2402503967,10.23937101
